# tick,encL,encR,gz,ax,ay,az,drop,emit,S,TH,OM,n_g,n_s,t_cum,still_frames,still,did,x1,x2,x3,x4,x5,d1,d2,d3
0,0,0,88,24,-10,16384,0,1,0,0,0,0,0,0,0,0,0,0,0,0,0,0,0,0,0
39,0,0,102,37,-39,16384,0,1,0,0,0.013589586542245926,1,1,39,1,1,1,0,0,0,0.00035259694922724384,0.00053556598948029891,0.013589586542245926,1,0.14809202409638325
59,0,0,91,19,-18,16384,0,1,0,0,0.025713629437779058,2,2,59,2,1,1,0,0,6.8152239931507097e-06,0.00030032329651638774,0.0010053236502551989,0.011588476906052834,1,0.10768616387414878
79,0,0,116,-17,-12,16384,0,1,0,0,0.041168453348568543,3,3,79,3,1,1,0,0,1.2235537863336532e-05,0.00037406433725629441,0.0016060269847183038,0.014449500260534286,1,0.16741786020015847
99,0,0,101,12,-42,16384,0,1,0,0,0.054624808650204214,4,4,99,4,1,1,0,0,1.9001733027490531e-05,0.00030647344958110653,0.0021099420145191091,0.011850328316917368,1,0.11260216292893725
119,0,0,79,42,20,16384,0,1,0,0,0.065150076658414297,5,5,119,5,1,1,0,0,2.4460502047407573e-05,0.00021743941648573809,0.0024751172113668118,0.0084153259936909745,1,0.056783025376711094
139,0,0,84,-37,46,16384,1,1,0,0,0.076341500869675644,6,6,139,6,1,-1,NaN,NaN,NaN,NaN,NaN,NaN,NaN,NaN
159,0,0,82,32,-34,16384,0,1,0,0,0.087266462599716488,7,7,159,7,1,1,0,0,3.2122422526370542e-05,0.00022098952570676067,0.0028766082551725004,0.0085830757592842838,1,0.059064445410950989
179,0,0,94,7,0,16384,0,1,0,0,0.099790199217080378,8,8,179,8,1,1,0,0,3.5200936288504181e-05,0.0002482571427039424,0.0033326365516071588,0.0096471283621913893,1,0.074615837550759442
199,0,0,91,6,62,16384,0,1,0,0,0.11191424211261351,9,9,199,9,1,1,0,0,3.8788316508941989e-05,0.00022612978484213772,0.0037521529362151153,0.0087914063439259761,1,0.061965044621615104
219,0,0,87,-5,1,16384,0,1,0,0,0.12350536004570563,10,10,219,10,1,1,0,0,4.1949184294232111e-05,0.00020154539881822586,0.0041294034053443347,0.0078389649968769997,1,0.04926552485498259
239,0,0,103,14,-29,16384,0,1,0,0,0.13722817782856181,11,11,239,11,1,1,0,0,4.4157094978292122e-05,0.00024655823453949809,0.0045946155446176268,0.0095934143775118462,1,0.073785000879135698
259,0,0,82,-18,43,16384,0,1,0,0,0.14815313955860265,12,12,259,12,1,1,0,0,4.7786328281951285e-05,0.00016263791419004591,0.0049036995519398619,0.0063303461854232173,1,0.032127208530267667
279,0,0,77,13,15,16384,1,1,0,0,0.15841194508559223,13,13,279,13,1,-1,NaN,NaN,NaN,NaN,NaN,NaN,NaN,NaN
299,0,0,83,-18,-23,16384,0,1,0,0,0.16947013805624334,14,14,299,14,1,1,0,0,5.2881569031715259e-05,0.0001474063334734833,0.0052011482677983036,0.0057547996968804792,1,0.026548951591393886
319,0,0,98,-60,-45,16384,0,1,0,0,0.18252679963604823,15,15,319,15,1,1,0,0,5.3796157202246064e-05,0.00020121085762718222,0.0056073326033025447,0.0078555133120065922,1,0.049469312279105566
339,0,0,86,41,-19,16384,0,1,0,0,0.19398468632853008,16,16,339,16,1,1,0,0,5.6229224344228612e-05,0.00014985307843525409,0.005909951096112644,0.0058505540891793054,1,0.027439774497164202
359,0,0,92,19,-53,16384,0,1,0,0,0.20624196046467347,17,17,359,17,1,1,0,0,5.7421167229954051e-05,0.00016257431123393746,0.0062383666984849283,0.0063473230400307428,1,0.032297400496949243
379,0,0,92,-14,-1,16384,0,1,0,0,0.21849923460081686,18,18,379,18,1,1,0,0,5.8889996056965543e-05,0.00015416023970936648,0.006549876661503356,0.0060189074376584585,1,0.029041666703655329
399,0,0,83,-45,-36,16384,0,1,0,0,0.22955742757146796,19,19,399,19,1,1,0,0,6.0587546598878106e-05,0.00011546840035180778,0.0067832641186263004,0.0045083163091477535,1,0.016293516490718109
419,0,0,85,-3,-1,16384,1,1,0,0,0.24088208302333958,20,20,419,20,1,-1,NaN,NaN,NaN,NaN,NaN,NaN,NaN,NaN
439,0,0,94,-53,-26,16384,0,1,0,0,0.25340581964070347,21,21,439,21,1,1,0,0,6.3440110749102274e-05,0.00013131599716450365,0.0070625495295949005,0.0051409319159914507,1,0.021185649957868331
459,0,0,94,54,0,16384,0,1,0,0,0.26592955625806736,22,22,459,22,1,1,0,0,6.4140082663755038e-05,0.00013953350699488516,0.0073578573546457457,0.0054611870877689893,1,0.023907543765304674
479,0,0,90,21,71,16384,0,1,0,0,0.27792036791299024,23,23,479,23,1,1,0,0,6.525650273525585e-05,0.00011840034559700008,0.0076073348600579366,0.0046329543002771381,1,0.017205977620364687
499,0,0,86,8,-4,16384,0,1,0,0,0.28937825460547212,24,24,499,24,1,1,0,0,6.6201650634756248e-05,9.8426168339849421e-05,0.0078139038751198053,0.0038505518324239412,1,0.011885336449897622
519,0,0,80,-34,25,16384,0,1,0,0,0.30003675385429246,25,25,519,25,1,1,0,0,6.7097206390531738e-05,7.2726230860980894e-05,0.0079659923667696701,0.0028445953737005359,1,0.0064864714604722096
539,0,0,85,98,57,16384,0,1,0,0,0.31136140930616407,26,26,539,26,1,1,0,0,6.7260551629200194e-05,8.5883821679852337e-05,0.0081450216637292648,0.0033586630851019424,1,0.0090427842370524088
559,0,0,72,-12,-68,16384,1,1,0,0,0.32095405863010235,27,27,559,27,1,-1,NaN,NaN,NaN,NaN,NaN,NaN,NaN,NaN
579,0,0,84,-14,-19,16384,0,1,0,0,0.33214548284136369,28,28,579,28,1,1,0,0,6.9757991883800941e-05,5.7312795067012996e-05,0.0082701738122313226,0.0022470151038705456,1,0.0040472031926789701
599,0,0,94,-3,-44,16384,0,1,0,0,0.34466921945872758,29,29,599,29,1,1,0,0,6.910607101939803e-05,0.00010853788463453459,0.0085053927834818199,0.0042535628051325672,1,0.014502841440775556
619,0,0,80,-19,-39,16384,0,1,0,0,0.35532771870754792,30,30,619,30,1,1,0,0,7.0355836174318398e-05,5.4961330943535235e-05,0.0086236933739633082,0.0021531064653385213,1,0.0037160565252030509
639,0,0,104,-44,47,16384,0,1,0,0,0.36918376773101436,31,31,639,31,1,1,0,0,6.9192362023073883e-05,0.00013360871186463875,0.00890952048845782,0.0052323556495031242,1,0.021945692852176114
659,0,0,100,-19,49,16384,0,1,0,0,0.38250689179203978,32,32,659,32,1,1,0,0,6.9936453468422144e-05,0.00011273561382601875,0.0091493697981516395,0.0044136035725676065,1,0.015615091817807751
679,0,0,95,-32,-29,16384,0,1,0,0,0.39516385965001394,33,33,679,33,1,1,0,0,7.0644350124826616e-05,8.961777246820242e-05,0.0093390938767701284,0.0035075980598225157,1,0.0098623479828654614
699,0,0,88,26,-32,16384,1,1,0,0,0.40688820882371629,34,34,699,34,1,-1,NaN,NaN,NaN,NaN,NaN,NaN,NaN,NaN
719,0,0,98,39,-56,16384,0,1,0,0,0.41994487040352119,35,35,719,35,1,1,0,0,7.2791043316033921e-05,7.7772179017016312e-05,0.0095111848790961281,0.003051411499983496,1,0.007463402713030913
739,0,0,94,17,-4,16384,0,1,0,0,0.43246860702088508,36,36,739,36,1,1,0,0,7.2919528541159906e-05,7.6820277430043361e-05,0.0096796578962101126,0.0030125517382677616,1,0.0072746074135763006
759,0,0,106,28,-89,16384,0,1,0,0,0.44659111852557204,37,37,759,37,1,1,0,0,7.2341511394569125e-05,0.00011334373947248164,0.0099262429100669958,0.0044428536084768506,1,0.015822284293112051
779,0,0,106,-14,-5,16384,0,1,0,0,0.460713630030259,38,38,779,38,1,1,0,0,7.2602525536424878e-05,0.00010709569865938445,0.010157561001069891,0.0041962685946199674,1,0.014114837262515216
799,0,0,82,74,-18,16384,0,1,0,0,0.47163859176029982,39,39,799,39,1,1,0,0,7.4376111178331428e-05,1.9592307996594508e-05,0.010199605507236894,0.00076740072897092497,1,0.00047206024619676621
819,0,0,97,54,11,16384,0,1,0,0,0.48456202209949445,40,40,819,40,1,1,0,0,7.3455615831274912e-05,6.9563387993071615e-05,0.010348019807221128,0.0027238248319577368,1,0.0059472290380855539
839,0,0,93,28,14,16384,1,1,0,0,0.49695252747624807,41,41,839,41,1,-1,NaN,NaN,NaN,NaN,NaN,NaN,NaN,NaN
859,0,0,97,37,-12,16384,0,1,0,0,0.5098759578154427,42,42,859,42,1,1,0,0,7.5060618477174046e-05,5.8826712492144814e-05,0.010479055894733686,0.0023089480507529989,1,0.0042732641416330774
879,0,0,96,4,20,16384,0,1,0,0,0.52266615691402707,43,43,879,43,1,1,0,0,7.5057917201526436e-05,5.8914608370977482e-05,0.010609033010169851,0.0023111432038506793,1,0.0042814489491199738
899,0,0,77,21,-23,16384,0,1,0,0,0.53292496244101661,44,44,899,44,1,1,0,0,7.6414987474127116e-05,-8.9321562116984315e-06,0.010589496280337151,0.00035022748318030636,1,9.8320148778467689e-05
919,0,0,94,-14,-12,16384,0,1,0,0,0.54544869905838056,45,45,919,45,1,1,0,0,7.5248602571242884e-05,4.9351879339565351e-05,0.010696606664514881,0.0019342403370267939,1,0.0029989375956000395
939,0,0,81,33,24,16384,0,1,0,0,0.55624042954781117,46,46,939,46,1,1,0,0,7.6187047331810476e-05,2.4280050055536137e-06,0.010701839674112496,9.5123824915725047e-05,1,7.2531917541572599e-06
959,0,0,78,-50,7,16384,0,1,0,0,0.56663246631541098,47,47,959,47,1,1,0,0,7.6393914895778181e-05,-7.910335449879324e-06,0.010684897161792968,0.00030980290651268574,1,7.6935200367618908e-05
979,0,0,87,10,53,16384,1,1,0,0,0.57822358424850306,48,48,979,48,1,-1,NaN,NaN,NaN,NaN,NaN,NaN,NaN,NaN
999,0,0,90,-38,1,16384,0,1,0,0,0.59021439590342595,49,49,999,49,1,1,0,0,7.5482850978136895e-05,2.8174741706846716e-05,0.010747865419165755,0.0011060676322145174,1,0.00098060208962621131
1019,0,0,95,-4,-9,16384,0,1,0,0,0.60287136376140005,50,50,1019,50,1,1,0,0,7.502244763424315e-05,4.8657775263801634e-05,0.010855535373270001,0.0019091024388083449,1,0.0029214184812890957
1039,0,0,103,-23,-14,16384,0,1,0,0,0.61659418154425627,51,51,1039,51,1,1,0,0,7.4461338147813194e-05,7.3115828609032849e-05,0.011015887018178306,0.0028672824095862214,1,0.0065899400369258615
1059,0,0,102,-7,-5,16384,0,1,0,0,0.63018376808650223,52,52,1059,52,1,1,0,0,7.4549481393848538e-05,6.5658808908975082e-05,0.011158733289413431,0.0025736995240676509,1,0.0053095883539011641
1079,0,0,96,-26,11,16384,0,1,0,0,0.64297396718508659,53,53,1079,53,1,1,0,0,7.4993369670206533e-05,4.1637667346459961e-05,0.011248668559250044,0.0016314658091709337,1,0.0021335619776764298
1099,0,0,89,-54,14,16384,0,1,0,0,0.65483154759939921,54,54,1099,54,1,1,0,0,7.5502315134201581e-05,1.55459591508867e-05,0.011282030141648913,0.00060891185506257474,1,0.00029720893783901015
1119,0,0,96,35,-3,16384,1,1,0,0,0.66762174669798358,55,55,1119,55,1,-1,NaN,NaN,NaN,NaN,NaN,NaN,NaN,NaN
1139,0,0,84,28,-7,16384,0,1,0,0,0.67881317090924498,56,56,1139,56,1,1,0,0,7.5729164287441364e-05,1.8052998722150942e-05,0.011322444509732049,0.00070878151327397054,1,0.00040267365977860196
1159,0,0,93,17,-8,16384,0,1,0,0,0.69120367628599866,57,57,1159,57,1,1,0,0,7.5497591312423395e-05,2.7219633844445014e-05,0.011382766482747711,0.0010680608670216307,1,0.00091437940210603293
1179,0,0,95,-30,4,16384,0,1,0,0,0.70386064414397276,58,58,1179,58,1,1,0,0,7.5337860868440742e-05,3.2489743199631306e-05,0.01145411634036575,0.001274201375226389,1,0.0013014152099379214
1199,0,0,104,-74,41,16384,0,1,0,0,0.71771669316743925,59,59,1199,59,1,1,0,0,7.4665481437197201e-05,6.1272670651700209e-05,0.011587581574263916,0.0024019326831007382,1,0.0046245143676327295
1219,0,0,98,-30,-11,16384,0,1,0,0,0.73077335474724414,60,60,1219,60,1,1,0,0,7.50852210416042e-05,3.7491068967505274e-05,0.011668648478955435,0.0014690800055409802,1,0.0017299740286430203
1239,0,0,102,-46,21,16384,0,1,0,0,0.7443629412894901,61,61,1239,61,1,1,0,0,7.4785160346646506e-05,4.9040309289858025e-05,0.011773991691562187,0.0019209380632905226,1,0.0029578706306933218
1259,0,0,83,-50,17,16384,1,1,0,0,0.75542113426014124,62,62,1259,62,1,-1,NaN,NaN,NaN,NaN,NaN,NaN,NaN,NaN
1279,0,0,83,18,-33,16384,0,1,0,0,0.76647932723079237,63,63,1279,63,1,1,0,0,7.7155656243110826e-05,-1.8230860250381827e-05,0.011733144994270899,0.00071579872091104974,1,0.00041068590544086772
1299,0,0,94,-7,-18,16384,0,1,0,0,0.77900306384815632,64,64,1299,64,1,1,0,0,7.6341961688708437e-05,2.0147448050279477e-05,0.011777827721922473,0.00079059162309304612,1,0.00050100078157528424
1319,0,0,89,-26,39,16384,0,1,0,0,0.79086064426246894,65,65,1319,65,1,1,0,0,7.6699848735817255e-05,2.033467049715118e-06,0.011782296380464539,7.975269239014586e-05,1,5.0983547752920918e-06
1339,0,0,86,-20,-7,16384,0,1,0,0,0.80231853095495076,66,66,1339,66,1,1,0,0,7.6922898862630262e-05,-8.2753267748664682e-06,0.011764259978004316,0.00032440968798271713,1,8.4359063558957627e-05
1359,0,0,83,25,-19,16384,0,1,0,0,0.8133767239256019,67,67,1359,67,1,1,0,0,7.7152458078266761e-05,-1.8018358749310819e-05,0.011725277657447502,0.00070606700735317829,1,0.00039961355589583511
1379,0,0,88,-10,57,16384,0,1,0,0,0.82510107309930425,68,68,1379,68,1,1,0,0,7.6792608088016578e-05,-2.3702954185569675e-08,0.011725226716323688,9.2848374514883925e-07,1,6.9103617388049567e-10
1399,0,0,93,-2,-24,16384,1,1,0,0,0.83749157847605793,69,69,1399,69,1,-1,NaN,NaN,NaN,NaN,NaN,NaN,NaN,NaN
1419,0,0,85,-36,27,16384,0,1,0,0,0.84881623392792949,70,70,1419,70,1,1,0,0,7.6714747216932722e-05,3.3708694026629159e-06,0.011732782401852531,0.00013235369798893053,1,1.4041059297933493e-05
1439,0,0,96,46,-1,16384,0,1,0,0,0.86160643302651385,71,71,1439,71,1,1,0,0,7.617165916329327e-05,2.6946648076212401e-05,0.011792566820182789,0.0010574166967318339,1,0.00089624365197791601
1459,0,0,96,-25,-13,16384,0,1,0,0,0.87439663212509822,72,72,1459,72,1,1,0,0,7.6138124885272163e-05,2.5436305993323553e-05,0.011848483459946546,0.00099763227840157613,1,0.00079777446934055851
1479,0,0,98,-23,6,16384,0,1,0,0,0.88745329370490311,73,73,1479,73,1,1,0,0,7.5957575693230694e-05,3.0818745732429749e-05,0.011915674565926012,0.0012081781198583497,1,0.0011700539222099446
1499,0,0,85,8,-10,16384,0,1,0,0,0.89877794915677467,74,74,1499,74,1,1,0,0,7.6909286490955964e-05,-1.5082185755090701e-05,0.011883035673989404,0.00059101911405445504,1,0.00027999564184798178
1519,0,0,88,40,-26,16384,0,1,0,0,0.91050229833047702,75,75,1519,75,1,1,0,0,7.6697212577858664e-05,-4.0510005628085132e-06,0.011874327342038931,0.00015868650028705127,1,2.0185150725539516e-05
1539,0,0,94,-35,40,16384,1,1,0,0,0.92302603494784097,76,76,1539,76,1,-1,NaN,NaN,NaN,NaN,NaN,NaN,NaN,NaN
1559,0,0,81,-15,23,16384,0,1,0,0,0.93381776543727157,77,77,1559,77,1,1,0,0,7.6662556069972965e-05,-5.5162841733043873e-06,0.011861960184203438,0.00021659378864165475,1,3.7602748016740972e-05
1579,0,0,94,23,-21,16384,0,1,0,0,0.94634150205463552,78,78,1579,78,1,1,0,0,7.616577580016326e-05,1.6864180648179148e-05,0.011899382489316731,0.0006617764331605068,1,0.00035103971125491004
1599,0,0,87,-32,-28,16384,0,1,0,0,0.95793261998772761,79,79,1599,79,1,1,0,0,7.6681872868800127e-05,-7.8596464533404911e-06,0.011882101693910884,0.00030826455622464354,1,7.6170400046714123e-05
1619,0,0,90,12,25,16384,0,1,0,0,0.96992343164265049,80,80,1619,80,1,1,0,0,7.64620195439214e-05,2.7729986041588703e-06,0.011888148314100412,0.00010870996101199938,1,9.4728909084500811e-06
1639,0,0,100,39,0,16384,0,1,0,0,0.98324655570367592,81,81,1639,81,1,1,0,0,7.5695307328871309e-05,3.6618793750319576e-05,0.011967404769404217,0.0014349757469250147,1,0.0016505825971152726
1659,0,0,78,46,2,16384,0,1,0,0,0.99363859247127573,82,82,1659,82,1,1,0,0,7.7325178970966135e-05,-4.0216234781746164e-05,0.011880942319807014,0.0015753680018044062,1,0.0019893720054113199
1679,0,0,88,-5,35,16384,1,1,0,0,1.0053629416449781,83,83,1679,83,1,-1,NaN,NaN,NaN,NaN,NaN,NaN,NaN,NaN
1699,0,0,93,17,-26,16384,0,1,0,0,1.0177534470217318,84,84,1699,84,1,1,0,0,7.5611859039259599e-05,4.4947517285295912e-06,0.011891020329358529,0.00017648495542100205,1,2.4965651563803046e-05
1719,0,0,101,-8,-1,16384,0,1,0,0,1.0312098023233673,85,85,1719,85,1,1,0,0,7.4780323400691628e-05,3.9889529243781596e-05,0.011979545205207677,0.0015653349722770521,1,0.0019640302613194499
1739,0,0,83,17,16,16384,0,1,0,0,1.0422679952940184,86,86,1739,86,1,1,0,0,7.611662996120927e-05,-2.3491083037355579e-05,0.011927891592401528,0.00092135223455665043,1,0.00068044086455239282
1759,0,0,101,1,29,16384,0,1,0,0,1.0557243505956539,87,87,1759,87,1,1,0,0,7.4759423201342656e-05,3.8988236901828883e-05,0.012012913300937619,0.0015284637092340524,1,0.0018726390480211992
1779,0,0,92,80,40,16384,0,1,0,0,1.0679816247317973,88,88,1779,88,1,1,0,0,7.5398217448174876e-05,6.2357605020875169e-06,0.012026410692954768,0.00024436083520568488,1,4.7864254851383406e-05
1799,0,0,103,56,-14,16384,0,1,0,0,1.0817044425146534,89,89,1799,89,1,1,0,0,7.4550158939867828e-05,4.3305992423880264e-05,0.012119521678343001,0.0016964070899013438,1,0.002306811377617294
1819,0,0,92,2,24,16384,1,1,0,0,1.0939617166507967,90,90,1819,90,1,-1,NaN,NaN,NaN,NaN,NaN,NaN,NaN,NaN
1839,0,0,86,29,19,16384,0,1,0,0,1.1054196033432786,91,91,1839,91,1,1,0,0,7.6438672728773582e-05,-6.6711487842310065e-06,0.01210456302017681,0.00026194126403038254,1,5.4996535526483374e-05
1859,0,0,92,23,34,16384,0,1,0,0,1.1176768774794219,92,92,1859,92,1,1,0,0,7.6214850323719219e-05,3.8915364947124593e-06,0.012113199726267811,0.00015271111596649317,1,1.8692822079813057e-05
1879,0,0,89,32,-49,16384,0,1,0,0,1.1295344578937345,93,93,1879,93,1,1,0,0,7.6442886641103769e-05,-6.5173338711479241e-06,0.012098868407557193,0.00025561931195519291,1,5.2375272914054426e-05
1899,0,0,95,-3,23,16384,0,1,0,0,1.1421914257517087,94,94,1899,94,1,1,0,0,7.5986872722033638e-05,1.4236037844941852e-05,0.012129914146859851,0.00055809945041701732,1,0.00024967035532930712
1919,0,0,87,-35,-5,16384,0,1,0,0,1.1537825436848008,95,95,1919,95,1,1,0,0,7.6583926784667966e-05,-1.3749329987315108e-05,0.012100152502547461,0.00053879621376776328,1,0.0002327004114343807
1939,0,0,84,-64,-64,16384,0,1,0,0,1.1649739678960622,96,96,1939,96,1,1,0,0,7.6832432129858574e-05,-2.3198036549781746e-05,0.012050273519425697,0.00090872829128605878,1,0.00066194210633788305
1979,0,0,93,68,0,16384,1,1,0,0,1.1773644732728159,97,97,1979,97,1,-1,NaN,NaN,NaN,NaN,NaN,NaN,NaN,NaN
1999,0,0,89,-45,28,16384,0,1,0,0,1.1892220536871285,98,98,1999,98,1,1,0,0,7.5394416563234756e-05,1.8737475156072888e-06,0.012054672078136578,7.3769376107452045e-05,1,4.3616604377456792e-06
2019,0,0,89,-41,-21,16384,0,1,0,0,1.2010796341014411,99,99,2019,99,1,1,0,0,7.5553875982681262e-05,-5.010578437065371e-06,0.012043084554498871,0.00019709166382395928,1,3.1134749514594565e-05
2039,0,0,77,-42,-26,16384,0,1,0,0,1.2113384396284308,100,100,2039,100,1,1,0,0,7.6547263892834394e-05,-4.5396577606481373e-05,0.011939500321425614,0.0017842790275092151,1,0.0025517761777303408
2059,0,0,87,-4,-9,16384,0,1,0,0,1.2229295575615229,101,101,2059,101,1,1,0,0,7.5850901467777732e-05,-8.8699023937726068e-06,0.011919503894465536,0.0003483823883335263,1,9.7282935543559175e-05
2079,0,0,105,-9,-50,16384,0,1,0,0,1.2369188378255995,102,102,2079,102,1,1,0,0,7.442743119590034e-05,5.2729622399233338e-05,0.012037097818801024,0.0020697763696111062,1,0.0034338203093421775
2099,0,0,86,-26,-7,16384,0,1,0,0,1.2483767245180815,103,103,2099,103,1,1,0,0,7.5827873293743409e-05,-1.4764102796826725e-05,0.012004490688277454,0.00057921112631909022,1,0.00026891202776516983
2119,0,0,87,60,-25,16384,1,1,0,0,1.2599678424511735,104,104,2119,104,1,-1,NaN,NaN,NaN,NaN,NaN,NaN,NaN,NaN
2139,0,0,71,22,28,16384,0,1,0,0,1.2694272605345016,105,105,2139,105,1,1,0,0,7.6153736244144454e-05,-3.7623036128051372e-05,0.011918166863260865,0.0014792226800673779,1,0.0017538029348036074
2159,0,0,86,-30,1,16384,0,1,0,0,1.2808851472269835,106,106,2159,106,1,1,0,0,7.5683663516734612e-05,-1.1715493725299013e-05,0.011891623558926817,0.00046028017077893134,1,0.00016981100600891238
2179,0,0,100,-8,-4,16384,0,1,0,0,1.294208271288009,107,107,2179,107,1,1,0,0,7.4579166224442162e-05,3.6459629109895876e-05,0.011973297442304307,0.0014315005020986097,1,0.0016425215620195438
2199,0,0,84,16,-2,16384,0,1,0,0,1.3053996954992704,108,108,2199,108,1,1,0,0,7.5779526212738091e-05,-1.9925452010081447e-05,0.011929114258304644,0.0007818732310429042,1,0.00049001206284343365
2219,0,0,92,25,-1,16384,0,1,0,0,1.3176569696354137,109,109,2219,109,1,1,0,0,7.5184885947265911e-05,8.3672131244022507e-06,0.01194749898824512,0.00032815987783865914,1,8.6319793796374333e-05
2239,0,0,86,14,-21,16384,0,1,0,0,1.3291148563278956,110,110,2239,110,1,1,0,0,7.5642583567070432e-05,-1.2489551116782386e-05,0.011920281098703011,0.00048961229576318689,1,0.0001921537335681813
2259,0,0,109,49,-65,16384,1,1,0,0,1.3436370615544133,111,111,2259,111,1,-1,NaN,NaN,NaN,NaN,NaN,NaN,NaN,NaN
2279,0,0,93,-59,7,16384,0,1,0,0,1.356027566931167,112,112,2279,112,1,1,0,0,7.4197725223879019e-05,3.9094972224718201e-05,0.012008961692446061,0.0015360742029326812,1,0.0018912327730606518
2299,0,0,66,50,-31,16384,0,1,0,0,1.3648208288114438,113,113,2299,113,1,1,0,0,7.6940060291352808e-05,-8.1897364675519429e-05,0.011825307063976283,0.0032156998121692128,1,0.0082885476837869457
2319,0,0,106,20,-30,16384,0,1,0,0,1.3789433403161309,114,114,2319,114,1,1,0,0,7.3913979181217115e-05,5.8539374125870722e-05,0.01195523752611197,0.0022972044407107359,1,0.0042299264539830076
2339,0,0,87,9,-33,16384,0,1,0,0,1.3905344582492229,115,115,2339,115,1,1,0,0,7.5302958558065569e-05,-9.2836455314313274e-06,0.011934821699779505,0.00036411959301988275,1,0.00010627400070070705
2359,0,0,104,22,65,16384,0,1,0,0,1.4043905072726894,116,116,2359,116,1,1,0,0,7.3975116718028033e-05,4.9006612401869326e-05,0.012041701715818278,0.0019212273236869828,1,0.002958702237950622
2379,0,0,106,-17,-14,16384,0,1,0,0,1.4185130187773765,117,117,2379,117,1,1,0,0,7.3727463616446443e-05,5.3099195994467212e-05,0.012156646520981857,0.0020808097888687406,1,0.0034706659174676088
2399,0,0,102,-22,71,16384,1,1,0,0,1.4321026053196224,118,118,2399,118,1,-1,NaN,NaN,NaN,NaN,NaN,NaN,NaN,NaN
2419,0,0,101,-1,-7,16384,0,1,0,0,1.445558960621258,119,119,2419,119,1,1,0,0,7.501465826464937e-05,3.4786112991282972e-05,0.012235102053720994,0.0013663244009589123,1,0.0014963447987002983
2439,0,0,79,-40,38,16384,0,1,0,0,1.4560842286294682,120,120,2439,120,1,1,0,0,7.6748036928364627e-05,-4.3558789328484917e-05,0.012137923286124022,0.0017098340455108073,1,0.0023433567593639129
2459,0,0,96,34,49,16384,0,1,0,0,1.4688744277280525,121,121,2459,121,1,1,0,0,7.5484403736947314e-05,1.6626202860453966e-05,0.012174655503183208,0.00065227581246034283,1,0.00034103486823256163
2479,0,0,89,-9,51,16384,0,1,0,0,1.4807320081423652,122,122,2479,122,1,1,0,0,7.6006156071617426e-05,-8.0860721552069702e-06,0.012156947020678771,0.0003170750888705897,1,8.0587112409977451e-05
2499,0,0,94,31,-3,16384,0,1,0,0,1.493255744759729,123,123,2499,123,1,1,0,0,7.5627218929508189e-05,9.3579986928839644e-06,0.012177280110756536,0.00036678959668506352,1,0.00010784001082773863
2519,0,0,96,-2,10,16384,0,1,0,0,1.5060459438583134,124,124,2519,124,1,1,0,0,7.5454046653433693e-05,1.564368241573457e-05,0.012211030866347833,0.00061291898782782871,1,0.00030113145227174723
2539,0,0,86,49,12,16384,1,1,0,0,1.5175038305507953,125,125,2539,125,1,-1,NaN,NaN,NaN,NaN,NaN,NaN,NaN,NaN
2559,0,0,112,31,15,16384,0,1,0,0,1.5324257294991437,126,126,2559,126,1,1,0,0,7.5482378355307134e-05,2.4925569773444432e-05,0.012267085913477811,0.00097886195406732789,1,0.00076801312498943103
2579,0,0,86,27,-40,16384,0,1,0,0,1.5438836161916256,127,127,2579,127,1,1,0,0,7.6470370276027211e-05,-2.0617733870570442e-05,0.012221206744705129,0.00080919922099587788,1,0.00052485933626657505
2599,0,0,82,-12,-84,16384,0,1,0,0,1.5548085779216665,128,128,2599,128,1,1,0,0,7.6835519903006855e-05,-3.3044983902826919e-05,0.012148369646583281,0.0012962450146642573,1,0.0013468269237684244
2619,0,0,95,-36,52,16384,0,1,0,0,1.5674655457796407,129,129,2619,129,1,1,0,0,7.587198275560425e-05,1.2971816419780273e-05,0.012176718784572892,0.0005085982113909298,1,0.00020734435363033705
2639,0,0,87,44,3,16384,0,1,0,0,1.5790566637127328,130,130,2639,130,1,1,0,0,7.6477251091056075e-05,-1.4942136183651589e-05,0.012144313169951329,0.00058560085148080462,1,0.00027488458103986686
2659,0,0,100,-59,21,16384,0,1,0,0,1.5923797877737582,131,131,2659,131,1,1,0,0,7.5487222265024911e-05,3.0089865124493164e-05,0.012209122029453876,0.0011788108910740971,1,0.0011138820540534577
2679,0,0,85,-13,-60,16384,1,1,0,0,1.6037044432256298,132,132,2679,132,1,-1,NaN,NaN,NaN,NaN,NaN,NaN,NaN,NaN
2699,0,0,90,34,15,16384,0,1,0,0,1.6156952548805525,133,133,2699,133,1,1,0,0,7.7026509337496663e-05,-1.4041617322469737e-05,0.012177589330718299,0.00055138847605671129,1,0.00024369239275967946
2719,0,0,92,-22,44,16384,0,1,0,0,1.6279525290166958,134,134,2719,134,1,1,0,0,7.6697588698326769e-05,2.0304524841088356e-06,0.012182101709050385,7.9684805425004474e-05,1,5.0896018569878508e-06
2739,0,0,83,9,-16,16384,0,1,0,0,1.6390107219873469,135,135,2739,135,1,1,0,0,7.7410837326041815e-05,-2.8653510876517968e-05,0.012119017577076913,0.0011239087383993589,1,0.0010125124346430376
2759,0,0,96,3,-26,16384,0,1,0,0,1.6518009210859312,136,136,2759,136,1,1,0,0,7.6439226750046885e-05,1.7119505797664938e-05,0.012156392195190312,0.00067118152150745167,1,0.00036109638701429863
2779,0,0,91,-5,-23,16384,0,1,0,0,1.6639249639814644,137,137,2779,137,1,1,0,0,7.6800682832889322e-05,-8.2546452356191586e-07,0.01215460365585672,3.2349299657162892e-05,1,8.3883643426997348e-07
2799,0,0,81,3,-44,16384,0,1,0,0,1.6747166944708949,138,138,2799,138,1,1,0,0,7.7581764553524835e-05,-3.4789778585702551e-05,0.012079735067119672,0.0013628731664262241,1,0.0014888888933369984
2819,0,0,86,25,19,16384,1,1,0,0,1.6861745811633768,139,139,2819,139,1,-1,NaN,NaN,NaN,NaN,NaN,NaN,NaN,NaN
2839,0,0,87,-33,45,16384,0,1,0,0,1.6977656990964689,140,140,2839,140,1,1,0,0,7.6527612233867615e-05,-1.4140099174891224e-05,0.012048004134489419,0.00055523275433266156,1,0.00024710252750319989
2859,0,0,98,-21,-5,16384,0,1,0,0,1.7108223606762738,141,141,2859,141,1,1,0,0,7.5637120134253166e-05,2.5702594251012932e-05,0.012105087284146767,0.0010086574453154768,1,0.00081549359830225521
2879,0,0,86,13,-44,16384,0,1,0,0,1.7222802473687557,142,142,2879,142,1,1,0,0,7.6537896168460406e-05,-1.6500606266769773e-05,0.012068780387993418,0.000647200591664834,1,0.00033575030881518686
2899,0,0,92,-4,2,16384,0,1,0,0,1.734537521504899,143,143,2899,143,1,1,0,0,7.6096127063607355e-05,4.807959934423193e-06,0.01207927143947112,0.00018849374814988544,1,2.8479828118535903e-05
2919,0,0,83,-4,5,16384,0,1,0,0,1.7455957144755501,144,144,2919,144,1,1,0,0,7.6793226076787846e-05,-2.6055771729254916e-05,0.012022842779497368,0.0010210784688200938,1,0.00083573006609044423
2939,0,0,101,-21,-34,16384,0,1,0,0,1.7590520697771856,145,145,2939,145,1,1,0,0,7.5434320987444181e-05,3.6593824167050707e-05,0.012101560446410947,0.0014335125221382125,1,0.0016472314727920957
2959,0,0,83,15,41,16384,1,1,0,0,1.7701102627478367,146,146,2959,146,1,-1,NaN,NaN,NaN,NaN,NaN,NaN,NaN,NaN
2979,0,0,93,-15,38,16384,0,1,0,0,1.7825007681245904,147,147,2979,147,1,1,0,0,7.7127034577628706e-05,-9.6066291137721473e-06,0.012080010600066983,0.00037721127270859411,1,0.00011405033684135061
2999,0,0,83,4,-5,16384,0,1,0,0,1.7935589610952414,148,148,2999,148,1,1,0,0,7.7549788773279005e-05,-2.6038420984429754e-05,0.012022200411547081,0.0010218176294159564,1,0.00083691265110471961
3039,318,-305,102,10,14,16384,0,1,0.00074938365229416568,-5.4762732450073605e-06,1.8071485476374873,149,149,3039,0,0,1,0.00074938365007094299,5.7724288548130982e-08,7.6508251933837812e-05,0.0015298833515878323,0.012022200411547081,0.0017042929618240599,1,0.0023313659960946037
3059,563,-543,106,30,33,16384,0,1,0.0013304353713625961,2.1900821088615311e-06,1.8212710591421744,150,150,3059,0,0,1,0.0013304353666906644,1.1106895329641454e-07,0.00010710591896545552,0.0020625288439247332,0.012022200411547081,0.0017169933254464927,1,0.0023662420651482611
3079,809,-779,88,5,35,16384,0,1,0.0019102166328989719,-1.8231947691320115e-06,1.8329954083158768,151,151,3079,0,0,1,0.0019102166234973988,1.8512511366170335e-07,0.00014835649584377109,-0.00029571263993384778,0.012022200411547081,9.7187393944940162e-05,1,7.5812676689937998e-06
3099,1054,-1016,90,-11,-11,16384,0,1,0.0024900426461783613,1.9019844141871381e-06,1.8449862199707996,152,152,3099,0,0,1,0.0024900426306477441,2.6943145008295276e-07,0.00014244224304515996,-2.659944258491317e-05,0.012022200411547081,0.00021764771579026607,1,3.8021582088347325e-05
3119,1300,-1253,101,-26,10,16384,1,1,0.0030710496135037779,1.8298837067431632e-06,1.8584425752724352,153,153,3119,0,0,-1,NaN,NaN,NaN,NaN,NaN,NaN,NaN,NaN
3139,1545,-1489,88,-30,10,16384,0,1,0.0036496499209941261,1.6138867195127452e-06,1.8701669244461376,154,154,3139,0,0,1,0.0036496498937871216,4.3399161266431228e-07,0.00014137826534188491,0.0005554912187468818,0.012022200411547081,0.00057535426848880089,1,0.00026570066150523227
3159,1792,-1726,86,-18,-12,16384,0,1,0.0042318378423655701,-2.2554938786941806e-06,1.8816248111386196,155,155,3159,0,0,1,0.0042318378088740342,5.1953433356282607e-07,0.00015248808971701777,-0.00055615332248227915,0.012022200411547081,0.00037084468915480175,1,0.000110383989065976
3179,2036,-1962,94,-9,18,16384,0,1,0.0048092571958098917,1.3257890248383518e-06,1.8941485477559834,156,156,3179,0,0,1,0.0048092571560858603,6.0437257051111017e-07,0.00014136502326733691,0.00049444024360217735,0.012022200411547081,0.00032247206064012625,1,8.3465335310715461e-05
3199,2283,-2199,91,64,-15,16384,0,1,0.0053914451171813357,-2.543591573368574e-06,1.9062725906515166,157,157,3199,0,0,1,0.0053914450712260163,6.8955215063449956e-07,0.0001512538281391862,9.5344186614264461e-05,0.012022200411547081,0.00029531151389641406,1,6.9997530233903944e-05
3219,2528,-2435,79,34,-42,16384,0,1,0.0059700454246716843,-2.7595885605989923e-06,1.9167978586597267,158,158,3219,0,0,1,0.0059700453720141333,7.7761932352180658e-07,0.00015316071187143621,-0.0014642302199975833,0.012022200411547081,0.0014861325539753736,1,0.0017727073768886547
3239,2772,-2672,90,31,-3,16384,0,1,0.0065486904839050465,4.7628705134831085e-06,1.9287886703146495,159,159,3239,0,0,1,0.0065486904256961626,8.577723166347393e-07,0.00012387610747133238,-2.2421506274783443e-05,0.012022200411547081,0.0004075117103284136,1,0.00013329140421584426
3259,3019,-2909,90,28,-6,16384,1,1,0.0071308784052764905,8.9348991527618266e-07,1.9407794819695723,160,160,3259,0,0,-1,NaN,NaN,NaN,NaN,NaN,NaN,NaN,NaN
3279,3264,-3145,93,-35,26,16384,0,1,0.0077094787127668391,6.774929280457646e-07,1.953169987346326,161,161,3279,0,0,1,0.0077094786457160037,1.0010457112497573e-06,0.00012297924722037834,0.00016250374513382561,0.012022200411547081,0.00027059254392707856,1,5.8769718165850267e-05
3299,3511,-3382,95,14,24,16384,0,1,0.0082916666341382832,-3.191887670161161e-06,1.9658269552043002,162,162,3299,0,0,1,0.0082916665625678565,1.0735888205490396e-06,0.00012622932212291715,0.00061654219389158625,0.012022200411547081,0.00082823647633747553,1,0.00055059297188688871
3319,3755,-3619,88,55,-39,16384,0,1,0.0088703116933716453,4.3305714039209393e-06,1.9775513043780026,163,163,3319,0,0,1,0.0088703116167298673,1.1501983848450781e-06,0.0001385601660008895,-0.00028302050991322719,0.012022200411547081,0.00067397419154872234,1,0.00036459313728444545
3339,4002,-3855,89,36,-41,16384,0,1,0.0094512739089540488,-3.4799853648355544e-06,1.9894088847923153,164,164,3339,0,0,1,0.0094512738269608466,1.2290523634093597e-06,0.00013289975580255131,-0.00016959107442475737,0.012022200411547081,0.00022590784120336176,1,4.0962322046122786e-05
3359,4247,-4092,100,-4,16,16384,0,1,0.010031099922233439,2.4519381848359527e-07,2.0027320088533407,165,165,3359,0,0,1,0.010031099835249545,1.3051277655981768e-06,0.00012950793431398822,0.0012763955756083913,0.012022200411547081,0.0011146646903123876,1,0.00099726469584030387
3379,4492,-4327,85,23,-10,16384,0,1,0.010608474523934746,-3.9119793392963909e-06,2.0140566643052122,166,166,3379,0,0,1,0.010608474431107448,1.3872719411835595e-06,0.00015503584582621244,-0.00068676946648217867,0.012022200411547081,0.00048968630178652516,1,0.0001924677049902429
3399,4738,-4564,84,-11,-16,16384,1,1,0.011189481491260162,-3.9840800467403656e-06,2.0252480885164736,167,167,3399,0,0,-1,NaN,NaN,NaN,NaN,NaN,NaN,NaN,NaN
3419,4983,-4802,104,-43,-10,16384,0,1,0.011770533210328593,3.682275307128526e-06,2.0391041375399399,168,168,3419,0,0,1,0.011770533105900568,1.5514713635004172e-06,0.00012756506716682381,0.0004946777252375225,0.012022200411547081,0.00031167983965612993,1,7.7972126797094192e-05
3439,5229,-5038,89,5,37,16384,0,1,0.012350314471864968,-3.3100157086501659e-07,2.0509617179542525,169,169,3439,0,0,1,0.01235031436234664,1.6282992476014506e-06,0.00013745862167136025,-0.00016541313811462591,0.012022200411547081,3.6043846665214182e-05,1,1.0427596647678872e-06
3459,5474,-5275,95,-29,51,16384,0,1,0.012930140485144358,3.3941776124541331e-06,2.0636186858122265,170,170,3459,0,0,1,0.012930140370279205,1.707042223549824e-06,0.00013415035890895766,0.00062489806651163044,0.012022200411547081,0.00044850848726094971,1,0.00016145938290959615
3479,5721,-5512,77,27,-49,16384,0,1,0.013512328406515802,-4.7520298575279275e-07,2.073877491339216,171,171,3479,0,0,1,0.013512328285912612,1.7887810229498387e-06,0.00014664832023925101,-0.0017288488388563616,0.012022200411547081,0.0015699258546473011,1,0.0019782457454793241
3499,5965,-5748,83,23,7,16384,0,1,0.014089747759960124,3.1060799177797397e-06,2.0849356843098672,172,172,3499,0,0,1,0.014089747634525675,1.8634758932104052e-06,0.00011207134346191694,-0.0009388542764101318,0.012022200411547081,0.0011430715860724597,1,0.001048742373431523
3519,6211,-5985,76,0,-53,16384,0,1,0.01467075472728554,3.0339792103357646e-06,2.0950612585962465,173,173,3519,0,0,1,0.014670754598788093,1.9231353157354839e-06,9.3294257933695945e-05,-0.0018549704043654537,0.012022200411547081,0.001893021089795603,1,0.0028762912597672546
3539,6457,-6221,84,5,105,16384,1,1,0.015250535988821916,-9.7929766765777804e-07,2.1062526828075079,174,174,3539,0,0,-1,NaN,NaN,NaN,NaN,NaN,NaN,NaN,NaN
3559,6702,-6457,81,0,-16,16384,0,1,0.015829136296312264,-1.1952946548881961e-06,2.1170444132969384,175,175,3559,0,0,1,0.015829136165985812,1.9882303940375026e-06,1.9095441758931742e-05,-0.0010102709317851553,0.012022200411547081,0.00092489121457053328,1,0.00068659915582052063
3579,6948,-6694,95,-44,9,16384,0,1,0.01641014326363768,-1.267395362332171e-06,2.1297013811549124,176,176,3579,0,0,1,0.016410143133287737,1.9934552342409932e-06,-1.1099768766342777e-06,0.00062072013020149884,0.012022200411547081,0.00063837248179910593,1,0.00032709226353173004
3599,7193,-6930,79,-55,-40,16384,0,1,0.016988743571128027,-1.4833923495625891e-06,2.1402266491631226,177,177,3599,0,0,1,0.01698874344077057,1.9964044898608529e-06,1.1304425727498568e-05,-0.0014642302199975833,0.012022200411547081,0.0014861325539753736,1,0.0017727073768886547
3619,7440,-7168,103,1,-15,16384,0,1,0.017572157198288512,-1.4115967772197722e-06,2.1539494669459787,178,178,3619,0,0,1,0.017572157067927804,1.9944571272410348e-06,-1.7980178672605263e-05,0.0016632744658463721,0.012022200411547081,0.0016970275926918893,1,0.0023115312244522427
3639,7684,-7404,93,-10,-10,16384,0,1,0.018149576551732834,2.1696861263127602e-06,2.1663399723227323,179,179,3639,0,0,1,0.018149576421371601,1.9936790927637807e-06,1.5285310644319594e-05,0.00036414074178295547,0.012022200411547081,0.0001892408200299719,1,2.8744290899927449e-05
3659,7930,-7641,95,-12,22,16384,0,1,0.01873058351905825,2.0975854188687851e-06,2.1789969401807063,180,180,3659,0,0,1,0.018730583388592952,2.0046756478258367e-06,2.2568125479960344e-05,0.00062072013020149884,0.012022200411547081,0.00063837248179910593,1,0.00032709226353173004
3679,8176,-7878,99,-41,9,16384,1,1,0.019311590486383666,2.0254847114248099e-06,2.1921868330011214,181,181,3679,0,0,-1,NaN,NaN,NaN,NaN,NaN,NaN,NaN,NaN
3699,8421,-8114,86,-74,19,16384,0,1,0.019890190793874014,1.8094877241943919e-06,2.2036447196936031,182,182,3699,0,0,1,0.019890190662699165,2.0452416418752045e-06,4.7396930688226035e-05,0.00029489221510811236,0.012022200411547081,0.00030889178726815913,1,7.6583406438923284e-05
3719,8667,-8350,84,-47,-72,16384,0,1,0.020469972055410391,-2.2037891537991509e-06,2.2148361439048645,183,183,3719,0,0,1,0.020469971923500755,2.0744312239351717e-06,5.3294774990497729e-05,-0.00081691064721116954,0.012022200411547081,0.0006301123563860016,1,0.00031868230452959136
3739,8913,-8586,97,50,-12,16384,0,1,0.021049753316946768,-6.2170660317926935e-06,2.2277595742440592,184,184,3739,0,0,1,0.02104975318444682,2.1005942409475547e-06,3.6956562046164265e-05,0.00087698287644001767,0.012022200411547081,0.0011018937715473371,1,0.00097454391306821264
3759,9158,-8823,87,7,46,16384,0,1,0.021629579330226158,-2.4918868484735439e-06,2.2393506921771515,185,185,3759,0,0,1,0.021629579197120032,2.12710759182366e-06,5.449621957476225e-05,-0.00041749794804257876,0.012022200411547081,0.00061734143762072913,1,0.00030589530740768355
3779,9404,-9060,87,42,-7,16384,0,1,0.022210586297551575,-2.563987555917519e-06,2.2509418101102439,186,186,3779,0,0,1,0.022210586163709828,2.1563445829105856e-06,4.6146260614055024e-05,-0.00042167588435271041,0.012022200411547081,0.00042747744308257286,1,0.000146672388002864
3799,9649,-9297,80,-6,1,16384,0,1,0.022790412310830965,1.1611916274016306e-06,2.2616003093590642,187,187,3799,0,0,1,0.022790412176479528,2.1806563987538582e-06,3.7712742927187293e-05,-0.0013295944607780003,0.012022200411547081,0.0015499601218926977,1,0.0019282485167730343
3819,9894,-9534,87,-19,31,16384,1,1,0.023370238324110355,4.8863708107207803e-06,2.2731914272921565,188,188,3819,0,0,-1,NaN,NaN,NaN,NaN,NaN,NaN,NaN,NaN
3839,10140,-9770,95,14,14,16384,0,1,0.023950019585646732,8.7309393272723767e-07,2.2858483951501305,189,189,3839,0,0,1,0.023950019451223589,2.1935522216197573e-06,-1.5471035503811237e-05,9.9442962379279554e-05,0.012022200411547081,0.00010904492635292762,1,9.5440539107740235e-06
3859,10386,-10007,101,-29,48,16384,0,1,0.024531026552972148,8.0099322528326267e-07,2.2993047504517663,190,190,3859,0,0,1,0.024531026418488124,2.1851412127405364e-06,-1.3482176256296441e-05,0.0014025171411176987,0.012022200411547081,0.0014377599254609202,1,0.0016591845905222858
3879,10631,-10244,80,-16,29,16384,0,1,0.025110852566251538,4.5261724086024122e-06,2.3099632497005866,191,191,3879,0,0,1,0.025110852431767427,2.1854560554564208e-06,1.4568166565975815e-05,-0.0013295944607780003,0.012022200411547081,0.0015499601218926977,1,0.0019282485167730343
3899,10877,-10479,91,-30,-30,16384,0,1,0.025689408121998873,-3.4282806399406983e-06,2.3220872925961196,192,192,3899,0,0,1,0.025689407987514293,2.1861921065384786e-06,-1.2023722649523449e-05,9.0849608123456862e-05,0.012022200411547081,0.00049956513641300133,1,0.00020031164678670875
3919,11123,-10716,84,-23,49,16384,0,1,0.026270415089324289,-3.5003813473846734e-06,2.333278716807381,193,193,3919,0,0,1,0.026270414954803818,2.1797340824590354e-06,-1.0206730487016813e-05,-0.0008125743898108103,0.012022200411547081,0.00082717116491348003,1,0.00054917749267165334
3939,11369,-10952,87,15,39,16384,0,1,0.026850196350860667,-7.5136582253782156e-06,2.3448698347404733,194,194,3939,0,0,1,0.02685019621624277,2.1691052573335396e-06,-2.6458218283398338e-05,-0.0004260121417530696,0.012022200411547081,0.00023041863455509453,1,4.2614476157544182e-05
3959,11614,-11189,101,-28,-15,16384,1,1,0.027430022364140057,-3.788479042059066e-06,2.3583261900421091,195,195,3959,0,0,-1,NaN,NaN,NaN,NaN,NaN,NaN,NaN,NaN
3979,11859,-11427,94,-45,36,16384,0,1,0.028011074083208486,3.8778763118098261e-06,2.3708499266594729,196,196,3979,0,0,1,0.028011073947880428,2.1284995407176059e-06,-4.3498703953481765e-05,0.00095281494976029923,0.012022200411547081,0.00068305718452303611,1,0.00037448642921095301
3999,12105,-11663,106,-12,26,16384,0,1,0.028590855344744863,-1.3540056618371652e-07,2.3849724381641599,197,197,3999,0,0,1,0.028590855209082271,2.1088040498038743e-06,-2.444240495824701e-05,0.0020496783928138831,0.012022200411547081,0.0023009749370396142,1,0.0042495772977011329
4019,12350,-11900,106,17,20,16384,0,1,0.029170681358024253,3.5897786171354331e-06,2.399094949668847,198,198,4019,0,0,1,0.029170681222357147,2.1065162760920812e-06,1.6551162898004179e-05,0.0020581925865243737,0.012022200411547081,0.0019140521339739798,1,0.0029405561873413321
4039,12596,-12137,91,-8,-19,16384,0,1,0.029751688325349669,3.517677909691458e-06,2.4112189925643799,199,199,4039,0,0,1,0.029751688189281998,2.1280908593768835e-06,5.7715014628367811e-05,9.952212292417705e-05,0.012022200411547081,0.00010544751935804451,1,8.9247218924737206e-06
4059,12842,-12373,90,-1,-45,16384,0,1,0.030331469586886046,-4.9559896830208459e-07,2.4232098042193027,200,200,4059,0,0,1,0.030331469449819154,2.1621299539679517e-06,5.9705457086778324e-05,-3.5113636295404062e-05,0.012022200411547081,0.00016927508727536853,1,2.2998952144866446e-05
4079,13087,-12609,81,57,13,16384,0,1,0.030910069894376394,-7.1159595553250265e-07,2.4340015347087331,201,201,4079,0,0,1,0.030910069756290317,2.1964723821694727e-06,5.900318436102836e-05,-0.0012036312163591395,0.012022200411547081,0.0012196700727550649,1,0.0011940065026396017
4099,13333,-12845,74,4,-14,16384,1,1,0.031489851155912768,-4.724872833526045e-06,2.4438606465138921,202,202,4099,0,0,-1,NaN,NaN,NaN,NaN,NaN,NaN,NaN,NaN
4119,13578,-13082,71,-14,8,16384,0,1,0.032069677169192158,-9.996936502068954e-07,2.4533200645972202,203,203,4119,0,0,1,0.03206967703039864,2.2369781136898715e-06,1.0857935706543032e-05,-0.0023110978212780619,0.012022200411547081,0.0023557330249367042,1,0.0044542449623370109
4139,13824,-13319,84,-25,-27,16384,0,1,0.032650684136517574,-1.0717943576508703e-06,2.4645114888084816,204,204,4139,0,0,1,0.032650683997680438,2.2298590106229912e-06,-3.5364020718908762e-05,-0.0008125743898108103,0.012022200411547081,0.00082717116491348003,1,0.00054917749267165334
4159,14069,-13556,85,19,27,16384,0,1,0.033230510149796964,2.6533848256682795e-06,2.4758361442603531,205,205,4159,0,0,1,0.033230510010411496,2.2046425137945961e-06,-5.1615508515290287e-05,-0.00067809695168145672,0.012022200411547081,0.00088380391884148191,1,0.00062695129337616
4179,14315,-13793,93,-19,-75,16384,0,1,0.033811517117122381,2.5812841182243044e-06,2.4882266496371068,206,206,4179,0,0,1,0.033811516976746253,2.1707137532099613e-06,-6.517744754885868e-05,0.0003601211265630551,0.012022200411547081,0.0003719100005787973,1,0.00011101909174349055
4199,14560,-14029,70,30,-9,16384,0,1,0.034390117424612732,2.3652871309938862e-06,2.4975528364798247,207,207,4199,0,0,1,0.034390117283139683,2.1350857239849016e-06,-5.7975025017587001e-05,-0.0026369257363714487,0.012022200411547081,0.0026852137194676509,1,0.005787348984987283
4219,14806,-14266,84,6,9,16384,0,1,0.034971124391938148,2.2931864235499111e-06,2.5087442606910861,208,208,4219,0,0,1,0.034971124248398468,2.0860811083254058e-06,-0.00011071353974489995,-0.0008125743898108103,0.012022200411547081,0.00082717116491348003,1,0.00054917749267165334
4239,15052,-14502,80,18,36,16384,1,1,0.035550905653474525,-1.7200904544436315e-06,2.5194027599399065,209,209,4239,0,0,-1,NaN,NaN,NaN,NaN,NaN,NaN,NaN,NaN
4259,15297,-14738,85,-19,22,16384,0,1,0.036129505960964876,-1.9360874416740498e-06,2.530727415391778,210,210,4259,0,0,1,0.036129505808088574,1.9390071609059476e-06,-0.00014321651533721891,-0.0010102709317851553,0.012022200411547081,0.00092489121457053328,1,0.00068659915582052063
4279,15543,-14975,93,34,12,16384,0,1,0.036710512928290293,-2.0081881491180249e-06,2.5431179207685317,211,211,4279,0,0,1,0.036710512768585189,1.8499276235054165e-06,-0.00016342193397278493,0.0003601211265630551,0.012022200411547081,0.0003719100005787973,1,0.00011101909174349055
4299,15788,-15211,79,13,-24,16384,0,1,0.037289113235780644,-2.2241851363484432e-06,2.5536431887767419,212,212,4299,0,0,1,0.037289113068686042,1.7574553045973918e-06,-0.00015621951144151325,-0.0014642302199975833,0.012022200411547081,0.0014861325539753736,1,0.0017727073768886547
4319,16035,-15448,95,-32,-28,16384,0,1,0.037871301157152086,-6.093565734555369e-06,2.5663001566347159,213,213,4319,0,0,1,0.037871300981559358,1.6579816209557004e-06,-0.00018550411584161708,0.00061654219389136909,0.012022200411547081,0.00082823647633725348,1,0.00055059297188659348
4339,16279,-15686,88,79,2,16384,0,1,0.038451171922174489,5.3700695100764729e-06,2.5780245058084184,214,214,4339,0,0,1,0.038451171737256755,1.5539883558816661e-06,-0.00017317327196364474,-0.00027868425251286778,0.012022200411547081,0.00087103300007620934,1,0.00060896337691831483
4359,16525,-15922,94,25,7,16384,0,1,0.039030953183710866,1.3567926320829303e-06,2.5905482424257822,215,215,4359,0,0,1,0.039030952989817548,1.4519699792497278e-06,-0.00017874695701403098,0.00048608437098191773,0.012022200411547081,0.00070220004971643002,1,0.00039577072690900596
4379,16771,-16159,83,-34,12,16384,1,1,0.039611960151036282,1.2846919246389554e-06,2.6016064353964334,216,216,4379,0,0,-1,NaN,NaN,NaN,NaN,NaN,NaN,NaN,NaN
4399,17015,-16395,81,16,-5,16384,0,1,0.0401893795044806,4.865974828171488e-06,2.6123981658858639,217,217,4399,0,0,1,0.040189379294039429,1.2561666590087183e-06,-0.00015930358217497442,-0.001071163585839521,0.012022200411547081,0.0011849682364084234,1,0.0011270297362935581
4419,17262,-16631,95,19,28,16384,0,1,0.040770341720063004,-2.9445819405850057e-06,2.6250551337438379,218,218,4419,0,0,1,0.040770341501225424,1.1573942417331656e-06,-0.00018072685389158849,0.00061220593649100822,0.012022200411547081,0.0010252952848647319,1,0.00084376183421241459
4439,17507,-16868,105,22,13,16384,0,1,0.041350167733342394,7.8059724273414393e-07,2.6390444140079148,219,219,4439,0,0,1,0.041350167505666287,1.0561538403377112e-06,-0.00016848273516156809,0.0019278930847051519,0.012022200411547081,0.0017808208933638254,1,0.0025454375208805481
4459,17753,-17104,93,-49,27,16384,0,1,0.041929948994878771,-3.2326796352593987e-06,2.6514349193846685,220,220,4459,0,0,1,0.041929948760749187,9.6964827076717529e-07,-0.00012992487346741299,0.00035578486916269586,0.012022200411547081,0.00056896880910627568,1,0.00025983573249151453
4479,17998,-17341,85,-14,-45,16384,0,1,0.042509775008158161,4.9249954805975097e-07,2.66275957483654,221,221,4479,0,0,1,0.042509774769399065,8.9637738277645924e-07,-0.00012280917608409325,-0.00067809695168145672,0.012022200411547081,0.00088380391884148191,1,0.00062695129337616
4499,18245,-17577,89,25,56,16384,0,1,0.043090737223740565,-7.3180572206967427e-06,2.6746171552508526,222,222,4499,0,0,1,0.043090736980103246,8.2109040488123295e-07,-0.00013637111511766165,-0.00016959107442475737,0.012022200411547081,0.00022590784120336176,1,4.0962322046122786e-05
4519,18489,-17814,84,-17,56,16384,1,1,0.043669382282973929,2.0440185338535759e-07,2.685808579462114,223,223,4519,0,0,-1,NaN,NaN,NaN,NaN,NaN,NaN,NaN,NaN
4539,18734,-18052,102,4,37,16384,0,1,0.044250434002042358,7.8707572072542492e-06,2.69939816600436,224,224,4539,0,0,1,0.044250433747078467,6.5900777810075352e-07,-0.00014315475809478784,0.0003685561597284313,0.012022200411547081,1.1415395492176252e-05,1,1.0459330388905811e-07
4559,18981,-18288,93,71,12,16384,0,1,0.044831396217624761,6.0200438497755494e-08,2.7117886713811137,225,225,4559,0,0,1,0.044831395957010529,5.7798144496074907e-07,-0.00013578363490029943,0.00035160693285256437,0.012022200411547081,0.00075883280364442323,1,0.00046218319488640645
4579,19226,-18524,97,-54,8,16384,0,1,0.045409996525115112,-1.5579654873266262e-07,2.7247121017203084,226,226,4579,0,0,1,0.045409996259439658,5.0145139107306575e-07,-0.0001287514962431402,0.00088116081275014754,0.012022200411547081,0.00091202977700918092,1,0.000667636378392502
4599,19472,-18760,100,-13,20,16384,0,1,0.04598977778665149,-4.169073426726205e-06,2.7380352257813336,227,227,4599,0,0,1,0.045989777516805795,4.3191249159957496e-07,-0.00011112827998793762,0.0012678813818976832,0.012022200411547081,0.0015015874933778002,1,0.0018097694035858387
4619,19717,-18997,97,2,-34,16384,0,1,0.04656960379993088,-4.4389424340705531e-07,2.7509586561205284,228,228,4619,0,0,1,0.046569603527275259,3.7482893021355406e-07,-8.5770652349825838e-05,0.00088549707015050851,0.012022200411547081,0.00071497096848170249,1,0.00041029740662893881
4639,19964,-19234,93,36,19,16384,0,1,0.047151791721302322,-4.3132748416139815e-06,2.763349161497282,229,229,4639,0,0,1,0.047151791446924586,3.3004954943800325e-07,-6.8060710946671321e-05,0.00035594319025292529,0.012022200411547081,0.0005617739951169448,1,0.0002533058500916524
4659,20208,-19470,76,-37,4,16384,1,1,0.04772921107474664,-7.3199193808144912e-07,2.7734747357836613,230,230,4659,0,0,-1,NaN,NaN,NaN,NaN,NaN,NaN,NaN,NaN
4679,20454,-19707,95,40,19,16384,0,1,0.048310218042072056,-8.0409264552542413e-07,2.7861317036416353,231,231,4679,0,0,1,0.048310217765543173,2.594529097165314e-07,-5.3822983336448971e-05,-0.00061511532947202731,0.012022200411547081,0.00071865889427266119,1,0.00041454107237470295
4699,20700,-19944,100,-41,47,16384,0,1,0.048891225009397472,-8.7619335296939913e-07,2.7994548277026605,232,232,4699,0,0,1,0.048891224731823675,2.2460751849538483e-07,-6.6125289925889064e-05,0.0012722176392980424,0.012022200411547081,0.0013045286848503217,1,0.0013659324514789372
4719,20945,-20181,93,-29,-19,16384,0,1,0.049471051022676862,2.8489858303497507e-06,2.8118453330794142,233,233,4719,0,0,1,0.049471050744276261,1.9364300409360968e-07,-4.0680937139825346e-05,0.00036429906287318675,0.012022200411547081,0.00018204600604064102,1,2.6600161128061149e-05
4739,21191,-20418,76,22,14,16384,0,1,0.050052057990002279,2.7768851229057756e-06,2.8219709073657935,234,234,4739,0,0,1,0.050052057711203163,1.7212369912015835e-07,-3.3394955882393162e-05,-0.0018549704043654537,0.012022200411547081,0.001893021089795603,1,0.0028762912597672546
4759,21436,-20653,95,-8,-25,16384,0,1,0.050629432591703584,-1.3802880348742102e-06,2.8346278752237675,235,235,4759,0,0,1,0.050629432312125522,1.4213217179833422e-07,-7.0494363969775264e-05,0.0006162255517109086,0.012022200411547081,0.00084262610431590646,1,0.00056989096983491136
4779,21682,-20890,77,17,-4,16384,0,1,0.051210439559029,-1.4523887423181851e-06,2.8448866807507569,236,236,4779,0,0,1,0.051210439278248657,1.0475476859038269e-07,-5.8169852935385791e-05,-0.001724670902546232,0.012022200411547081,0.0017597898491854486,1,0.0024856705871853161
4799,21927,-21127,102,10,11,16384,1,1,0.05179026557230839,2.2727904410009648e-06,2.8584762672930029,237,237,4799,0,0,-1,NaN,NaN,NaN,NaN,NaN,NaN,NaN,NaN
4819,22173,-21363,97,-41,61,16384,0,1,0.052370046833844767,-1.7404864369925778e-06,2.8713996976321976,238,238,4819,0,0,1,0.052370046548085948,-2.6982343997938375e-09,-0.00012715668903728883,0.0012069887278435341,0.012022200411547081,0.0012415104715401276,1,0.0012371510576473764
4839,22418,-21600,109,21,3,16384,0,1,0.052949872847124158,1.9846927463265718e-06,2.8859219028587155,239,239,4839,0,0,1,0.052949872557525451,-6.9428555697398482e-08,-0.0001030169144802251,0.0024490910919824737,0.012022200411547081,0.0023137458558048869,1,0.0042968803896312798
4859,22664,-21836,81,-36,-25,16384,0,1,0.053529654108660535,-2.0285841316669708e-06,2.896713633348146,240,240,4859,0,0,1,0.053529653817274266,-1.1495646105826741e-07,-5.403509264079176e-05,-0.0012078091526692694,0.012022200411547081,0.0010298060782169087,1,0.00085120243726112869
4879,22910,-22073,84,70,-22,16384,0,1,0.054110661075985951,-2.1006848391109459e-06,2.9079050575594074,241,241,4879,0,0,1,0.054110660783329906,-1.5336868166366126e-07,-7.8191275694194928e-05,-0.0008125743898108103,0.012022200411547081,0.00082717116491348003,1,0.00054917749267165334
4899,23156,-22311,83,-22,30,16384,0,1,0.054692893749100406,1.768390623994821e-06,2.9189632505300587,242,242,4899,0,0,1,0.05469289345427536,-2.0362527065375345e-07,-9.4442763490576453e-05,-0.00093853763422967087,0.012022200411547081,0.0011574612140511215,1,0.0010753128872313441
4919,23401,-22546,81,30,-30,16384,0,1,0.055270268350801711,-2.3887825337851648e-06,2.9297549810194892,243,243,4919,0,0,1,0.055270268052864537,-2.6357300142743713e-07,-0.00011321351617521458,-0.0012079674737595005,0.012022200411547081,0.0010226112642275865,1,0.00083935001261467026
4939,23646,-22783,97,24,-15,16384,1,1,0.055850094364081102,1.3363966495339849e-06,2.9426784113586839,244,244,4939,0,0,-1,NaN,NaN,NaN,NaN,NaN,NaN,NaN,NaN
4959,23892,-23019,95,-7,-1,16384,0,1,0.056429875625617479,-2.6768802284595577e-06,2.9553353792166579,245,245,4959,0,0,1,0.056429875316738654,-4.2287157529690667e-07,-0.00016153221512560378,0.00075094047147582319,0.012022200411547081,0.00077520112940414343,1,0.00048233719157633
4979,24137,-23256,86,-56,28,16384,0,1,0.057009701638896869,1.0482989548595919e-06,2.9667932659091396,246,246,4979,0,0,1,0.057009701323140427,-5.1217800705841149e-07,-0.00014651340569615812,-0.00054779744986223496,0.012022200411547081,0.00075057267823132757,1,0.00045217595014997956
4999,24383,-23493,94,37,14,16384,0,1,0.057590708606222285,9.76198247415617e-07,2.9793170025265034,247,247,4999,0,0,1,0.057590708283754809,-6.0048605758497889e-07,-0.00015746935469351797,0.00049042062838227697,0.012022200411547081,0.00050514124118895159,1,0.00020480832739544805
5019,24629,-23729,97,-65,2,16384,0,1,0.058170489867758662,-3.0370786305779254e-06,2.9922404328656982,248,248,5019,0,0,1,0.058170489538543653,-6.8894047145329057e-07,-0.00014766094212603775,0.00087698287644001767,0.012022200411547081,0.0011018937715473371,1,0.00097454391306821264
5039,24874,-23966,115,-28,-27,16384,0,1,0.058750315881038052,6.8810055274122426e-07,3.0075620255358775,249,249,5039,0,0,1,0.058750315546230406,-7.6947315173478215e-07,-0.00013012128459743977,0.0032308881028982393,0.012022200411547081,0.003113133299466257,1,0.0077788857072874258
5059,25120,-24202,96,-18,-14,16384,0,1,0.05933009714257443,-3.3251763252523183e-06,3.0203522246344621,250,250,5059,0,0,1,0.059330096804993321,-8.261829503791813e-07,-6.5503522539422931e-05,0.00074668337462079569,0.012022200411547081,0.0009686625309371828,1,0.00075312481719765284
5079,25366,-24440,92,18,49,16384,1,1,0.059912329815688885,5.4389913785344852e-07,3.0326094987706056,251,251,5079,0,0,-1,NaN,NaN,NaN,NaN,NaN,NaN,NaN,NaN
5099,25610,-24676,97,-21,21,16384,0,1,0.060489749169133203,4.1251820413859805e-06,3.0455329291098003,252,252,5099,0,0,1,0.060489748830069301,-8.848263852422315e-07,-3.5636187554644039e-05,0.00055974831560223672,0.012022200411547081,0.00038189286695609464,1,0.00011705906478272685
5119,25856,-24912,85,60,-39,16384,0,1,0.06106953043066958,1.1190516339243791e-07,3.0568575845616719,253,253,5119,0,0,1,0.061069530091344103,-9.0224226317076355e-07,-2.4441221242454958e-05,-0.00068661114539194767,0.012022200411547081,0.00049688111577584726,1,0.00019816499458797258
5139,26102,-25149,89,17,-41,16384,0,1,0.061650537397994996,3.9804455948462932e-08,3.0687151649759845,254,254,5139,0,0,1,0.061650537058384781,-9.2043204159276042e-07,-3.8173444150135794e-05,-0.00016107688071426667,0.012022200411547081,0.00016101496186226419,1,2.0809153979019917e-05
5159,26347,-25385,88,-11,27,16384,0,1,0.062229137705485348,-1.7619253128195518e-07,3.080439514149687,255,255,5159,0,0,1,0.062229137365417235,-9.4345119943703094e-07,-4.1394981764586447e-05,-0.00029153470362371786,0.012022200411547081,0.00028705138848309636,1,6.6136508023727542e-05
5179,26593,-25622,101,43,-6,16384,0,1,0.062810144672810764,-2.4829323872593016e-07,3.0938958694513228,256,256,5179,0,0,1,0.062810144332172274,-9.6919580918636494e-07,-4.7225675837037073e-05,0.0014025171411176987,0.012022200411547081,0.0014377599254609202,1,0.0016591845905222858
5199,26839,-25859,83,87,46,16384,0,1,0.063391151640136187,-3.2039394616990517e-07,3.104954062421974,257,257,5199,0,0,1,0.063391151299177481,-9.8848553357296451e-07,-1.9175333014764817e-05,-0.00094287389163003217,0.012022200411547081,0.00096040240552363438,1,0.00074033526186313052
5219,27085,-26095,83,-22,6,16384,1,1,0.063970932901672564,-4.3336708241634474e-06,3.1160122553926253,258,258,5219,0,0,-1,NaN,NaN,NaN,NaN,NaN,NaN,NaN,NaN
5239,27329,-26332,83,11,-33,16384,0,1,0.064549577960905921,3.1887882499186529e-06,3.1270704483632765,259,259,5239,0,0,1,0.064549577619109386,-1.0325437427007878e-06,-5.6890288679944945e-05,-0.00094086408402008193,0.012022200411547081,0.001051736995798047,1,0.00088784317099674934
5259,27576,-26568,85,-24,-73,16384,0,1,0.065130540176488325,-4.6217685188378408e-06,3.1383951038151481,260,260,5259,0,0,1,0.065130539833414963,-1.0710609156573359e-06,-7.5707570360350473e-05,-0.00069078908170207916,0.012022200411547081,0.00030701712123769971,1,7.5656656955790517e-05
5279,27821,-26805,93,51,-3,16384,0,1,0.065710366189767708,-8.9658933551869119e-07,3.1507856091919018,261,261,5279,0,0,1,0.065710365844715596,-1.1189635090925571e-06,-8.9523351994191813e-05,0.00036429906287318669,0.012022200411547081,0.00018204600604064105,1,2.6600161128061149e-05
5299,28066,-27042,78,53,-57,16384,0,1,0.066290192203047091,2.8285898478004584e-06,3.1611776459595018,262,262,5299,0,0,1,0.066290191855856745,-1.1687591765808737e-06,-8.223737073675963e-05,-0.001590193464416444,0.012022200411547081,0.0018164226031130064,1,0.0026482303095218033
5319,28312,-27278,84,12,10,16384,0,1,0.066869973464583468,-1.1846870301930842e-06,3.1723690701707632,263,263,5319,0,0,1,0.066869973114601092,-1.2256585067695936e-06,-0.00011404124002512006,-0.00081691064721116954,0.012022200411547081,0.0006301123563860016,1,0.00031868230452959136
5339,28558,-27515,90,-14,-25,16384,0,1,0.067450980431908891,-1.2567877376370591e-06,3.184359881825686,264,264,5339,0,0,1,0.067450980077587736,-1.2966635693869917e-06,-0.00013037945296945352,-3.0777378895044809e-05,0.012022200411547081,2.778372125210985e-05,1,6.1958769358458318e-07
5359,28803,-27752,107,22,0,16384,1,1,0.068030806445188274,2.4683914456820904e-06,3.1986156245709831,265,265,5359,0,0,-1,NaN,NaN,NaN,NaN,NaN,NaN,NaN,NaN
5379,29048,-27988,76,-22,-7,16384,0,1,0.068609406752678626,2.2523944584516721e-06,3.2087411988573624,266,266,5379,0,0,1,0.068609406388418351,-1.4484116254763011e-06,-0.00013161054812504958,0.00016668168144395629,0.012022200411547081,8.0728549388926689e-05,1,5.2308980321515611e-06
5399,29295,-28225,94,-11,20,16384,0,1,0.069191594674050075,-1.6169861397552537e-06,3.2212649354747263,267,267,5399,0,0,1,0.069191594304874565,-1.5240632960903742e-06,-0.00012827691449635026,0.00048624269207214721,0.012022200411547081,0.00069500523572709914,1,0.00038770206074696071
5419,29539,-28461,80,21,-34,16384,0,1,0.0697690140274944,1.9642967637772787e-06,3.2319234347235466,268,268,5419,0,0,1,0.069769013653921519,-1.5953252095310565e-06,-0.00011855206065503054,-0.0013297527818682316,0.012022200411547081,0.0015427653079033668,1,0.0019103884576365097
5439,29786,-28697,85,-24,-7,16384,0,1,0.070349976243076803,-5.8462600049792146e-06,3.2432480901754182,269,269,5439,0,0,1,0.070349975864454101,-1.6719248383524342e-06,-0.00014514711629232124,-0.00069078908170207916,0.012022200411547081,0.00030701712123769971,1,7.5656656955790517e-05
5459,30031,-28935,98,32,6,16384,0,1,0.070931027962145232,1.820095348889677e-06,3.256304751755223,270,270,5459,0,0,1,0.070931027576805361,-1.7602766612858199e-06,-0.00015896289792616258,0.0010201328293700897,0.012022200411547081,0.00065114340056436973,1,0.00034031041714643304
5479,30277,-29171,101,-21,-7,16384,0,1,0.07151080922368161,-2.1931815291038656e-06,3.2697611070568589,271,271,5479,0,0,1,0.071510808831926453,-1.8465258314773444e-06,-0.00013856024133884759,0.0013981808837173393,0.012022200411547081,0.0016348187339883986,1,0.0021451673013948621
5499,30522,-29408,80,28,20,16384,1,1,0.072090635236960993,1.5319976542152841e-06,3.2804196063056792,272,272,5499,0,0,-1,NaN,NaN,NaN,NaN,NaN,NaN,NaN,NaN
5519,30767,-29644,80,39,28,16384,0,1,0.072669235544451344,1.316000666984866e-06,3.2910781055544995,273,273,5519,0,0,1,0.07266923514561148,-1.9746438710573853e-06,-8.2633005990206954e-05,-0.0013317625894781809,0.012022200411547081,0.0014514307176289585,1,0.0016908869683399245
5539,31014,-29881,72,1,5,16384,0,1,0.073251423465822793,-2.55337993122206e-06,3.3006707548784378,274,274,5539,0,0,1,0.073251423064302962,-2.0305051699030691e-06,-0.00010926825777968219,-0.0023803463479529054,0.012022200411547081,0.0022360820576985169,1,0.0040132612382171012
5559,31258,-30118,92,-10,35,16384,0,1,0.07383006852505615,4.9690791428600403e-06,3.3129280290145813,275,275,5559,0,0,1,0.073830068118412973,-2.1075064637061328e-06,-0.00015687518473894713,0.00023817749736409458,0.012022200411547081,0.00014104922910766082,1,1.5968473084440383e-05
5579,31505,-30354,81,-48,-5,16384,0,1,0.074411030740638553,-2.8414776258964534e-06,3.3237197595040118,276,276,5579,0,0,1,0.074411030327062117,-2.1972612969792174e-06,-0.00015211163479156298,-0.001211987088979401,0.012022200411547081,0.00083994208367876117,1,0.00056626619961540965
5599,31750,-30591,96,-30,4,16384,0,1,0.074990856753917937,8.8370155742269627e-07,3.3365099586025964,277,277,5599,0,0,1,0.074990856332521963,-2.2924869957452378e-06,-0.00017635137657112665,0.00075519756833128664,0.012022200411547081,0.00058173972787154814,1,0.00027163104452726511
5619,31996,-30826,93,16,-6,16384,0,1,0.075569412309665268,-7.0707514911204138e-06,3.34890046397935,278,278,5619,0,0,1,0.075569411880026832,-2.3901468264719295e-06,-0.00016124742520462476,0.00035144861176233494,0.012022200411547081,0.00076602761763375411,1,0.00047098905170014129
5639,32241,-31064,78,46,23,16384,1,1,0.076150464028733697,5.956038627484778e-07,3.3592925007469501,279,279,5639,0,0,-1,NaN,NaN,NaN,NaN,NaN,NaN,NaN,NaN
5659,32487,-31301,99,-13,-44,16384,0,1,0.07673147099605912,5.2350315530450279e-07,3.3724823935673651,280,280,5659,0,0,1,0.076731470552601877,-2.5693577186368452e-06,-0.00014718948073433324,-0.00022196953476863205,0.012022200411547081,0.00042109198370016306,1,0.0001423232670695853
5679,32732,-31537,95,-16,4,16384,0,1,0.077310071303549471,3.0750616807408468e-07,3.3851393614253391,281,281,5679,0,0,1,0.077310070853634158,-2.6558059135381499e-06,-0.00015162887142983195,0.00062056180911126946,0.012022200411547081,0.00064556729578842814,1,0.00033450683714195183
5699,32977,-31774,80,-20,54,16384,0,1,0.077889897316828854,4.0326853513932345e-06,3.3957978606741595,282,282,5699,0,0,1,0.077889896860782487,-2.7401260984624578e-06,-0.00013921763524749053,-0.0013295944607780003,0.012022200411547081,0.0015499601218926977,1,0.0019282485167730343
5719,33224,-32010,79,-1,0,16384,0,1,0.078470859532411258,-3.7778714173632592e-06,3.4063231286823696,283,283,5719,0,0,1,0.078470859069608184,-2.828730725378083e-06,-0.0001658095244629898,-0.0014725860926178447,0.012022200411547081,0.0011064045648990699,1,0.00098253917385105654
5739,33468,-32247,93,-10,-12,16384,0,1,0.079049504591644615,3.7445876567188411e-06,3.4187136340591233,284,284,5739,0,0,1,0.07904950411941164,-2.9331966335828384e-06,-0.00019526124631541464,0.00036847699918331645,0.012022200411547081,7.8179884975064745e-06,1,4.9058245370402846e-08
5759,33715,-32484,75,16,19,16384,0,1,0.079631692513016064,-1.2479294148808471e-07,3.4287059771048924,285,285,5759,0,0,1,0.079631692030099496,-3.0447301434350891e-06,-0.00018789170633182195,-0.0019894478424948053,0.012022200411547081,0.0018363883358676098,1,0.0027067678411208237
5779,33960,-32719,81,10,-23,16384,1,1,0.080209067114717369,-4.2819660992680705e-06,3.4394977075943229,286,286,5779,0,0,-1,NaN,NaN,NaN,NaN,NaN,NaN,NaN,NaN
5799,34205,-32956,85,17,-27,16384,0,1,0.080788893127996753,-5.5678691594892082e-07,3.4508223630461945,287,287,5799,0,0,1,0.080788892615086427,-3.3082023446118508e-06,-0.00026746962003176833,-0.00094303221272047861,0.012022200411547081,0.00095320759153453422,1,0.00072928443032750656
5819,34451,-33193,90,6,21,16384,0,1,0.081369900095322176,-6.2888762339289583e-07,3.4628131747011173,288,288,5819,0,0,1,0.081369899560137904,-3.4690831382023367e-06,-0.00028633026428614983,-3.0777378895044809e-05,0.012022200411547081,2.7783721252109843e-05,1,6.1958769358458318e-07
5839,34697,-33430,97,-21,-22,16384,0,1,0.081950907062647599,-7.0098833083687084e-07,3.475736605040312,289,289,5839,0,0,1,0.081950906503595169,-3.6356218331439523e-06,-0.00028694581186394785,0.00088131913384037691,0.012022200411547081,0.00090483496301985871,1,0.00065714423725791256
5859,34943,-33667,91,6,-37,16384,0,1,0.082531914029973022,-7.7308903828084584e-07,3.4878606479358449,290,290,5859,0,0,1,0.082531913448447902,-3.7972188214263081e-06,-0.00026931942918695384,9.9522122924177063e-05,0.012022200411547081,0.00010544751935804449,1,8.9247218924737206e-06
5879,35187,-33903,93,-41,17,16384,0,1,0.083109333383417347,2.8081938652516867e-06,3.5002511533125986,291,291,5879,0,0,1,0.083109332781105744,-3.9521544102395388e-06,-0.00026732898672854333,0.00036414074178295547,0.012022200411547081,0.0001892408200299719,1,2.8744290899927449e-05
5899,35434,-34140,93,32,-34,16384,0,1,0.083691521304788796,-1.0611867329552391e-06,3.5126416586893523,292,292,5899,0,0,1,0.083691520682237092,-4.1056701321508921e-06,-0.00026004617189290258,0.00035594319025292534,0.012022200411547081,0.0005617739951169448,1,0.0002533058500916524
5919,35679,-34377,90,-26,-2,16384,1,1,0.084271347318068179,2.6639924503639105e-06,3.5246324703442751,293,293,5919,0,0,-1,NaN,NaN,NaN,NaN,NaN,NaN,NaN,NaN
5939,35924,-34613,88,-28,-41,16384,0,1,0.084849947625558531,2.4479954631334922e-06,3.5363568195179775,294,294,5939,0,0,1,0.084849946965953271,-4.3986677799573345e-06,-0.00024580844428268023,-0.0001590670731043155,0.012022200411547081,0.00025234955213668123,1,5.1112489389066491e-05
5959,36170,-34849,89,6,9,16384,0,1,0.085429728887094908,-1.5652814148600504e-06,3.5482143999322902,295,295,5959,0,0,1,0.085429728209746508,-4.5421051494997622e-06,-0.00024898978574494635,-0.00016541313811462591,0.012022200411547081,3.6043846665214182e-05,1,1.0427596647678872e-06
5979,36416,-35085,101,-51,-6,16384,0,1,0.086009510148631285,-5.5785582928535925e-06,3.561670755233926,296,296,5979,0,0,1,0.086009509453071273,-4.6874237944460034e-06,-0.00025229804850734894,0.0013981808837173393,0.012022200411547081,0.0016348187339883986,1,0.0021451673013948621
5999,36661,-35323,100,1,-46,16384,0,1,0.086590561867699714,2.0877970610152991e-06,3.5749938792949512,297,297,5999,0,0,1,0.086590561155639387,-4.8258978538775189e-06,-0.00022433443083302862,0.0012807318330085335,0.012022200411547081,0.00091760588178467842,1,0.00067582512624033125
6019,36907,-35560,88,19,-19,16384,0,1,0.087171568835025137,2.015696353571324e-06,3.5867182284686536,298,298,6019,0,0,1,0.08717156810996661,-4.9487965791034663e-06,-0.00019871979417285246,-0.00029137638253348854,0.012022200411547081,0.00029424620247241851,1,6.9493420748779723e-05
6039,37153,-35796,96,41,-10,16384,0,1,0.087751350096561515,-1.9975805244222186e-06,3.5995084275672382,299,299,6039,0,0,1,0.087751349359717165,-5.0656999369355846e-06,-0.00020454732182351165,0.00074668337462079569,0.012022200411547081,0.0009686625309371828,1,0.00075312481719765284
6059,37397,-36033,101,-7,-15,16384,1,1,0.088329995155794871,5.5248785496598813e-06,3.612964782868874,300,300,6059,0,0,-1,NaN,NaN,NaN,NaN,NaN,NaN,NaN,NaN
6079,37643,-36269,93,-32,-27,16384,0,1,0.088909776417331249,1.5116016716663387e-06,3.6253552882456277,301,301,6079,0,0,1,0.088909775659662252,-5.2853533835738473e-06,-0.00017467998683873276,0.00088332894145032705,0.012022200411547081,0.00081350037274544604,1,0.00053117480770314941
6099,37889,-36506,88,14,-34,16384,0,1,0.089490783384656672,1.4395009642223638e-06,3.6370796374193302,302,302,6099,0,0,1,0.089490782618997344,-5.3817114698435123e-06,-0.00015701340800955421,-0.00029137638253348854,0.012022200411547081,0.00029424620247241851,1,6.9493420748779723e-05
6119,38134,-36742,89,25,16,16384,0,1,0.090069383692147023,1.2235039769919457e-06,3.6489372178336428,303,303,6119,0,0,1,0.09006938291908835,-5.4742453802487896e-06,-0.0001628409356602134,-0.00016123520180449599,0.012022200411547081,0.00015382014787294204,1,1.8991025016149002e-05
6139,38380,-36978,90,-19,29,16384,0,1,0.0906491649536834,-2.7897729010015969e-06,3.6609280294885655,304,304,6139,0,0,1,0.090649164172784666,-5.5695923144129208e-06,-0.00016606563969645549,-3.5113636295404062e-05,0.012022200411547081,0.00016927508727536853,1,2.2998952144866446e-05
6159,38626,-37215,86,18,-19,16384,0,1,0.091230171921008824,-2.861873608445572e-06,3.6723859161810473,305,305,6159,0,0,1,0.091230171132064733,-5.6662816203369778e-06,-0.00016676791242220546,-0.00055197538617236656,0.012022200411547081,0.00056070868369317134,1,0.00025234605574167248
6179,38872,-37451,100,13,12,16384,0,1,0.091809953182545201,-6.8751504864391146e-06,3.6857090402420725,306,306,6179,0,0,1,0.091809952384996271,-5.7661707803480639e-06,-0.00017780742014572581,0.0012678813818976832,0.012022200411547081,0.0015015874933778002,1,0.0018097694035858387
6199,39117,-37689,83,-14,-23,16384,1,1,0.09239100490161363,7.9120486742977702e-07,3.6967672332127237,307,307,6199,0,0,-1,NaN,NaN,NaN,NaN,NaN,NaN,NaN,NaN
6219,39363,-37926,85,9,10,16384,0,1,0.092972011868939053,7.1910415998580201e-07,3.7080918886645953,308,308,6219,0,0,1,0.092972011057886453,-5.9433263852844504e-06,-0.00012709216486994634,-0.00080831729295556467,0.012022200411547081,0.0010206325664463016,1,0.00083610496091801535
6239,39608,-38162,98,-18,-5,16384,0,1,0.093550612176429404,5.0310717275538385e-07,3.7211485502444002,309,309,6239,0,0,1,0.093550611360090602,-6.0215388770621665e-06,-0.00014325851072927165,0.0010114603145693693,0.012022200411547081,0.0010452610176193353,1,0.00087694319974403352
6259,39853,-38399,96,-77,73,16384,0,1,0.094130438189708787,4.2282863560745337e-06,3.7339387493429848,310,310,6259,0,0,1,0.09413043736823061,-6.0987391779606987e-06,-0.00012302930443786053,0.00075519756833128664,0.012022200411547081,0.00058173972787154814,1,0.00027163104452726511
6279,40099,-38635,80,4,16,16384,0,1,0.094710219451245165,2.150094780809911e-07,3.7445972485918051,311,311,6279,0,0,1,0.094710218625901288,-6.1656907691560616e-06,-0.00010792535307135864,-0.0013381086544884914,0.012022200411547081,0.0011630373188270631,1,0.0010856985491401402
6299,40345,-38871,96,-21,-3,16384,0,1,0.095290000712781542,-3.7982673999125515e-06,3.7573874476903897,312,312,6299,0,0,1,0.095289999883171855,-6.236021969576763e-06,-0.00013468752616097035,0.00074668337462079569,0.012022200411547081,0.0009686625309371828,1,0.00075312481719765284
6319,40590,-39108,85,8,-12,16384,0,1,0.095869826726060925,-7.3088216593401863e-08,3.7687121031422612,313,313,6319,0,0,1,0.095869825891758964,-6.3097878362672724e-06,-0.0001197538586685809,-0.00067809695168145672,0.012022200411547081,0.00088380391884148191,1,0.00062695129337616
6339,40836,-39344,87,-4,25,16384,1,1,0.096449607987597302,-4.086365094586944e-06,3.7803032210753535,314,314,6339,0,0,-1,NaN,NaN,NaN,NaN,NaN,NaN,NaN,NaN
6359,41082,-39581,102,-3,-14,16384,0,1,0.097030614954922725,-4.1584658020309187e-06,3.7938928076175995,315,315,6359,0,0,1,0.097030614110305363,-6.4645392445029167e-06,-0.00014687773673571769,0.00055340225059192453,0.012022200411547081,0.00067028626575799002,1,0.00036061401254387332
6379,41327,-39818,79,-80,29,16384,0,1,0.097610440968202108,-4.3328661871176909e-07,3.8044180756258097,316,316,6379,0,0,1,0.097610440117792852,-6.5464940065539981e-06,-0.00013580969172366508,-0.0014598939625972223,0.012022200411547081,0.0016831913625028521,1,0.0022739920629052568
6399,41572,-40055,82,-2,-22,16384,0,1,0.098190266981481492,3.2918925646073805e-06,3.8153430373558503,317,317,6399,0,0,1,0.098190266124513606,-6.6337048433034415e-06,-0.00016500757097581698,-0.0010689954571395568,0.012022200411547081,0.001283497640672389,1,0.0013222455259615633
6419,41819,-40292,83,-74,-15,16384,0,1,0.098772454902852941,-5.7748803359954525e-07,3.8264012303265016,318,318,6419,0,0,1,0.098772454036899091,-6.73599381996561e-06,-0.00018638748011845507,-0.00094705182794016182,0.012022200411547081,0.00077053841098548683,1,0.00047655227017751381
6439,42063,-40528,97,-5,0,16384,0,1,0.099349874256297266,3.0037948699329872e-06,3.8393246606656963,319,319,6439,0,0,1,0.099349873379268414,-6.8490860180443575e-06,-0.00020532851667720564,0.00088533874906027729,0.012022200411547081,0.00072216578247103337,1,0.00041859667144954112
6459,42309,-40765,89,-36,13,16384,0,1,0.099930881223622689,2.9316941624890121e-06,3.851182241080009,320,320,6459,0,0,1,0.099930880335379682,-6.9632394362735019e-06,-0.00018762174169584256,-0.00016107688071426667,0.012022200411547081,0.00016101496186226419,1,2.0809153979019917e-05
6479,42555,-41000,87,-27,-34,16384,1,1,0.10050943677937002,-5.0227588860540989e-06,3.8627733590131013,321,321,6479,0,0,-1,NaN,NaN,NaN,NaN,NaN,NaN,NaN,NaN
6499,42801,-41237,90,18,-30,16384,0,1,0.10109044374669544,-5.0948595934980736e-06,3.874764170668024,322,322,6499,0,0,1,0.10109044283733613,-7.1845341493985304e-06,-0.00019406481692429978,-0.00023056288902423684,0.012022200411547081,3.057177363986299e-05,1,7.5017610634028518e-07
6519,43046,-41474,85,-12,-37,16384,0,1,0.10167026975997483,-1.3696804101789239e-06,3.8860888261198956,323,323,6519,0,0,1,0.10167026883943608,-7.2983948413893011e-06,-0.00019867607470480664,-0.00067809695168145672,0.012022200411547081,0.00088380391884148191,1,0.00062695129337616
6539,43291,-41710,91,25,38,16384,0,1,0.10224887006746518,-1.585677397409342e-06,3.8982128690154285,324,324,6539,0,0,1,0.10224886913471433,-7.4172723495156352e-06,-0.00021223801373837503,9.936380183394774e-05,0.012022200411547081,0.00011264233334736665,1,1.0184160453965325e-05
6559,43538,-41948,78,-27,-18,16384,0,1,0.10283228369462566,-1.5138818250665252e-06,3.9086049057830285,325,325,6559,0,0,1,0.10283228274885763,-7.5405151960551111e-06,-0.00021025073770175595,-0.0015942130796363461,0.012022200411547081,0.0016337534225641897,1,0.002142372463533338
6579,43782,-42185,84,23,7,16384,0,1,0.10341092875385902,6.0085772490155747e-06,3.91979632999429,326,326,6579,0,0,1,0.10341092779328831,-7.6714005807292826e-06,-0.00024213499929448545,-0.00080421851719054884,0.012022200411547081,0.0012068991539897838,1,0.0011691330092344018
6599,44029,-42421,101,-22,8,16384,0,1,0.10399189096944142,-1.801979519740919e-06,3.9332526852959258,327,327,6599,0,0,1,0.1039918899906899,-7.8167440705889031e-06,-0.00025821936963810188,0.0013940029474072079,0.012022200411547081,0.0018246827285265462,1,0.0026723705638168282
6619,44274,-42658,90,28,49,16384,1,1,0.1045717169827208,1.9231996635782307e-06,3.9452434969508485,328,328,6619,0,0,-1,NaN,NaN,NaN,NaN,NaN,NaN,NaN,NaN
6639,44519,-42893,99,61,10,16384,0,1,0.10514909158442211,-2.2339734942017551e-06,3.9584333897712636,329,329,6639,0,0,1,0.10514909057497225,-8.0832928602165399e-06,-0.00020245925174178225,0.00055541205820165858,0.012022200411547081,0.00057895167548335097,1,0.00026903363963217964
6659,44765,-43130,70,8,-4,16384,0,1,0.10573009855174753,-2.3060742016457302e-06,3.9677595766139815,330,330,6659,0,0,1,0.10573009753103438,-8.1976961125832234e-06,-0.00019135101057754511,-0.0026367674152812195,0.012022200411547081,0.0026924085334569729,1,0.0058184040054316179
6679,45010,-43367,91,-14,-14,16384,0,1,0.10630992456502691,1.4191049816734194e-06,3.9798836195095144,331,331,6679,0,0,1,0.10630992353057148,-8.3239350685695405e-06,-0.00024408635888306662,0.00010370005923430869,0.012022200411547081,8.4416475180111729e-05,1,5.7197412838842046e-06
6699,45256,-43603,99,-10,20,16384,0,1,0.10688970582656329,-2.5941718963201232e-06,3.9930735123299295,332,332,6699,0,0,1,0.10688970477498315,-8.4648505307475607e-06,-0.00024201235769849561,0.0011375818800784614,0.012022200411547081,0.0013683562527676458,1,0.0015028662062623057
6719,45501,-43840,70,69,25,16384,0,1,0.10746953183984267,1.1310072869990265e-06,4.0023996991726474,333,333,6719,0,0,1,0.10746953077284113,-8.5985795944275954e-06,-0.00021926072009703645,-0.0026325894789710875,0.012022200411547081,0.0028822725279951293,1,0.006667945499893968
6739,45748,-44077,91,15,-8,16384,0,1,0.10805171976121412,-2.7383733112078993e-06,4.0145237420681807,334,334,6739,0,0,1,0.10805171867665589,-8.7415571538279325e-06,-0.00027191250967639746,9.5344186614481626e-05,0.012022200411547081,0.00029531151389663611,1,6.9997530234009207e-05
6759,45992,-44314,94,8,37,16384,1,1,0.10863036482044748,4.784085762874201e-06,4.027047478685545,335,335,6759,0,0,-1,NaN,NaN,NaN,NaN,NaN,NaN,NaN,NaN
6779,46239,-44551,73,31,-40,16384,0,1,0.10921255274181893,9.1470516466727519e-07,4.0367733592500938,336,336,6779,0,0,1,0.10921255161494657,-9.0549885855643468e-06,-0.00026809874221189745,-0.00087563517256513822,0.012022200411547081,0.00098871878248741316,1,0.00078463472719825049
6799,46484,-44787,91,25,-23,16384,0,1,0.10979115304930928,6.9870817743685713e-07,4.0488974021456272,337,337,6799,0,0,1,0.10979115190026242,-9.2151770260005097e-06,-0.00028561144566330299,9.9363801834382058e-05,0.012022200411547081,0.00011264233334781074,1,1.0184160454045625e-05
6819,46729,-45023,88,2,-55,16384,0,1,0.11036975335679963,4.8271119020643907e-07,4.0606217513193297,338,338,6819,0,0,1,0.11036975218431735,-9.3798569747977328e-06,-0.00028362416962668391,-0.00029153470362371786,0.012022200411547081,0.00028705138848309636,1,6.6136508023727542e-05
6839,46975,-45259,102,-3,48,16384,0,1,0.11094953461833601,-3.5305656877871035e-06,4.0742113378615752,339,339,6839,0,0,1,0.1109495334220523,-9.5459872149752332e-06,-0.00028945486369913453,0.0015284803855361269,0.012022200411547081,0.0017680499745981089,1,0.0025090598996858784
6859,47220,-45496,90,122,-18,16384,0,1,0.11152936063161539,1.9461349553204611e-07,4.086202149516498,340,340,6859,0,0,1,0.11152935941353914,-9.7049581457433971e-06,-0.00025888525598860568,-2.659944258491317e-05,0.012022200411547081,0.00021764771579026607,1,3.8021582088347325e-05
6879,47467,-45733,88,60,-11,16384,0,1,0.11211154855298684,-3.6747671026748797e-06,4.0979264986902004,341,341,6879,0,0,1,0.11211154731536091,-9.8558328718542252e-06,-0.0002594172448402432,-0.00029555431884361824,0.012022200411547081,0.00010438220793427099,1,8.7453040800523487e-06
6899,47711,-45969,70,-2,25,16384,1,1,0.11268896790643117,-9.3484199142347274e-08,4.1072526855329183,342,342,6899,0,0,-1,NaN,NaN,NaN,NaN,NaN,NaN,NaN,NaN
6919,47958,-46207,96,0,-8,16384,0,1,0.11327238153359165,-2.1688626799530515e-08,4.1200428846315029,343,343,6919,0,0,1,0.1132723802551049,-1.0163834745806044e-05,-0.00027123941759388259,-0.00094078492347496703,0.012022200411547081,0.0010553344027927167,1,0.00089392719310572887
6939,48203,-46443,82,37,22,16384,0,1,0.113850981841082,-2.3768561402994863e-07,4.1309678463615436,344,344,6939,0,0,1,0.11385098053980913,-1.0326217338557798e-05,-0.0002900551160633924,-0.0010733317145399178,0.012022200411547081,0.0010864388321449106,1,0.00094739811624156174
6959,48448,-46680,79,26,21,16384,0,1,0.11443080785436138,3.4874935692892011e-06,4.1414931143697533,345,345,6959,0,0,1,0.11443080652685902,-1.050062229399596e-05,-0.00031152175035398244,-0.0014598939625976566,0.012022200411547081,0.0016831913625032962,1,0.0022739920629064568
6979,48694,-46916,93,-20,26,16384,0,1,0.11501058911589776,-5.2578330870434148e-07,4.153883619746507,346,346,6979,0,0,1,0.11501058775756418,-1.0689700955694086e-05,-0.00034071962960613433,0.00035578486916269586,0.012022200411547081,0.00056896880910627568,1,0.00025983573249151453
6999,48939,-47152,81,14,5,16384,0,1,0.11558918942338811,-7.4178029593475954e-07,4.1646753502359379,347,347,6999,0,0,1,0.11558918803216744,-1.0884782862109126e-05,-0.00033360393222281459,-0.0012036312163587052,0.012022200411547081,0.0012196700727546209,1,0.0011940065026387321
7019,49185,-47389,75,20,-41,16384,0,1,0.11617019639071353,-8.1388100337873455e-07,4.1746676932817071,348,348,7019,0,0,1,0.11617019496478724,-1.1085602248287134e-05,-0.00035767655655005726,-0.0019852699061846759,0.012022200411547081,0.0020262523304057571,1,0.0032954066328335176
7039,49430,-47625,85,-50,12,16384,1,1,0.11674879669820389,-1.0298779906091527e-06,4.1859923487335786,349,349,7039,0,0,-1,NaN,NaN,NaN,NaN,NaN,NaN,NaN,NaN
7059,49677,-47862,100,18,40,16384,0,1,0.11733098461957533,-4.8992585888160789e-06,4.1993154727946038,350,350,7059,0,0,1,0.1173309831019976,-1.1546878531494309e-05,-0.00043708735279723854,0.00029280324695304748,0.012022200411547081,0.00040382378453723291,1,0.00013088978247403964
7079,49921,-48099,74,43,8,16384,0,1,0.11790962967880869,2.6232004852660214e-06,4.2091745845997623,351,351,7079,0,0,1,0.11790962810669531,-1.1798102669229663e-05,-0.0004312312878580471,-0.0021072135353840706,0.012022200411547081,0.0025392115600926593,1,0.0051751117230162359
7099,50167,-48335,87,-61,-17,16384,0,1,0.11848941094034507,-1.3900763927275212e-06,4.2207657025328542,352,352,7099,0,0,1,0.11848940930892633,-1.2060339709595335e-05,-0.00047337555856552527,-0.00042601214175350393,0.012022200411547081,0.0002304186345555386,1,4.2614476157708445e-05
7119,50413,-48573,88,29,-10,16384,0,1,0.11907164361345952,2.4789990703782457e-06,4.2324900517065567,353,353,7119,0,0,1,0.11907164191562672,-1.2338434797752802e-05,-0.00048189580140078903,-0.00028704012513312735,0.012022200411547081,0.00049130501099990567,1,0.00019374225228917602
7139,50659,-48809,107,1,16,16384,0,1,0.1196514248749959,-1.5342778076152969e-06,4.2467457944518543,354,354,7139,0,0,1,0.1196514231090393,-1.261949314726861e-05,-0.00048763660390349628,0.0021799778946335392,0.012022200411547081,0.0024342061776502126,1,0.0047559433984168623
7159,50904,-49045,96,23,-6,16384,0,1,0.12023002518248625,-1.750274794845715e-06,4.2595359935504389,355,355,7159,0,0,1,0.12023002335375038,-1.2889026467680854e-05,-0.00044403704601103655,0.00075086131093092567,0.012022200411547081,0.00077879853639902658,1,0.00048682425752529472
7179,51149,-49282,93,30,-14,16384,1,1,0.12080985119576564,1.9749043884734344e-06,4.2719264989271926,356,356,7179,0,0,-1,NaN,NaN,NaN,NaN,NaN,NaN,NaN,NaN
7199,51396,-49518,98,1,23,16384,0,1,0.12139081341134804,-5.8356523802830593e-06,4.2849831605069975,357,357,7199,0,0,1,0.12139081147578598,-1.3387027609167447e-05,-0.00041400259357393665,0.00068370175241114738,0.012022200411547081,0.00080351750636814003,1,0.00051821817830512726
7219,51640,-49755,87,40,43,16384,0,1,0.1219694584705814,1.686806693799041e-06,4.2965742784400893,358,358,7219,0,0,1,0.12196945648705435,-1.3622631951528685e-05,-0.0004003285585256755,-0.00041332001173288339,0.012022200411547081,0.00080720543215932077,1,0.00052298605454580832
7239,51886,-49992,103,-17,31,16384,0,1,0.12255046543790682,1.6147059863550661e-06,4.3102970962229454,359,359,7239,0,0,1,0.12255046340685651,-1.3857627044909849e-05,-0.00040859495876022223,0.0016631161447561425,0.012022200411547081,0.0017042224066812289,1,0.0023311729700600972
7259,52132,-50228,100,-26,-15,16384,0,1,0.1231302466994432,-2.3985708916384762e-06,4.3236202202839706,360,360,7259,0,0,1,0.12313024462385536,-1.408488030397334e-05,-0.0003753326358650888,0.0012678813818976832,0.012022200411547081,0.0015015874933778002,1,0.0018097694035858387
7279,52377,-50465,100,20,18,16384,0,1,0.12371007271272258,1.3266082916806734e-06,4.3369433443449958,361,361,7279,0,0,1,0.12371007059900602,-1.4295156419201692e-05,-0.00034997500822697702,0.001276395575608174,0.012022200411547081,0.0011146646903121655,1,0.00099726469583990662
7299,52623,-50702,100,12,-8,16384,0,1,0.124291079680048,1.2545075842366985e-06,4.350266468406021,362,362,7299,0,0,1,0.12429107753329792,-1.4491078386433331e-05,-0.0003244470967147528,0.0012722176392980424,0.012022200411547081,0.0013045286848503217,1,0.0013659324514789372
7319,52869,-50939,76,-10,-9,16384,1,1,0.12487208664737343,1.1824068767927236e-06,4.3603920426924008,363,363,7319,0,0,-1,NaN,NaN,NaN,NaN,NaN,NaN,NaN,NaN
7339,53114,-51175,95,-11,56,16384,0,1,0.12545068695486378,9.6640988956230553e-07,4.3730490105503748,364,364,7339,0,0,1,0.12545068475627771,-1.483780413831667e-05,-0.00027355839114262537,-0.00061720429762687496,0.012022200411547081,0.00062372689700336537,1,0.00031225607896458413
7359,53360,-51411,87,6,38,16384,0,1,0.12603046821640015,-3.0468669884312369e-06,4.3846401284834666,365,365,7359,0,0,1,0.1260304659951304,-1.4999986600185136e-05,-0.00028590247709514571,-0.00042601214175350393,0.012022200411547081,0.0002304186345555386,1,4.2614476157708445e-05
7379,53605,-51648,103,-36,24,16384,0,1,0.12661029422967954,6.7831219488791278e-07,4.3983629462663227,366,366,7379,0,0,1,0.12661029198400076,-1.5168230420522666e-05,-0.00029442271993040947,0.0016672940810662741,0.012022200411547081,0.0015143584121430726,1,0.0018406842894108744
7399,53850,-51884,98,45,49,16384,0,1,0.12718889453716989,4.6231520765749467e-07,4.4114196078461276,367,367,7399,0,0,1,0.12718889226917307,-1.5328936526060451e-05,-0.00026107683830911554,0.0010114603145693693,0.012022200411547081,0.0010452610176193353,1,0.00087694319974403352
7419,54096,-52121,92,-8,32,16384,0,1,0.1277699015044953,3.9021450021351971e-07,4.4236768819822707,368,368,7419,0,0,1,0.12776989921820198,-1.5474747331695379e-05,-0.00024084763201770443,0.00022982162474339892,0.012022200411547081,0.00023867875996819884,1,4.5724556575687331e-05
7439,54342,-52358,90,89,18,16384,0,1,0.12835090847182071,3.181137927695447e-07,4.4356676936371935,369,369,7439,0,0,1,0.12835090616899605,-1.5613346202994798e-05,-0.00023625119952264129,-3.0777378895044809e-05,0.012022200411547081,2.7783721252109843e-05,1,6.1958769358458318e-07
7459,54588,-52594,87,24,33,16384,1,1,0.12893068973335708,-3.6951630852239979e-06,4.4472588115702854,370,370,7459,0,0,-1,NaN,NaN,NaN,NaN,NaN,NaN,NaN,NaN
7479,54833,-52832,82,-16,19,16384,0,1,0.12951174145242553,3.9711922686448933e-06,4.458183773300326,371,371,7479,0,0,1,0.12951173911703612,-1.5888308932466517e-05,-0.00023748229467823734,-0.00074533567074635144,0.012022200411547081,0.00085548754187770735,1,0.0005874208207479239
7499,55079,-53067,90,15,-37,16384,0,1,0.13009029700817287,-3.9832607798982172e-06,4.4701745849552488,372,372,7499,0,0,1,0.13009029465542868,-1.6030017812959374e-05,-0.00025238900809299025,-3.944989369576501e-05,0.012022200411547081,0.00036633389580284693,1,0.00010771499505675217
7519,55324,-53304,68,-13,41,16384,0,1,0.13067012302145226,-2.5808159657906757e-07,4.4792343093167464,373,373,7519,0,0,1,0.13067012065018277,-1.6176588264502366e-05,-0.00025317800596669215,-0.0028931884826095314,0.012022200411547081,0.003148735009215438,1,0.0079578213023296061
7539,55570,-53541,86,-24,-27,16384,0,1,0.13125112998877767,-3.3018230402304258e-07,4.4906921960092285,374,374,7539,0,0,1,0.13125112759438817,-1.6340496074430258e-05,-0.00031104177561891433,-0.00055197538617193223,0.012022200411547081,0.00056070868369272726,1,0.00025234605574127274
7559,55815,-53777,101,21,-14,16384,0,1,0.13182973029626802,-5.4617929125346075e-07,4.5041485513108643,375,375,7559,0,0,1,0.13182972787288741,-1.6523658669668213e-05,-0.00032208128334243469,0.0014023588200274694,0.012022200411547081,0.0014449547394502424,1,0.0016758318667056053
7579,56061,-54014,91,17,-3,16384,0,1,0.13241073726359343,-6.1827999869743575e-07,4.5162725942063977,376,376,7579,0,0,1,0.13241073481264418,-1.6702642334053104e-05,-0.00029403410694195387,9.9522122924611381e-05,0.012022200411547081,0.00010544751935848858,1,8.9247218925488914e-06
7599,56306,-54250,99,-14,-49,16384,1,1,0.13298933757108378,-8.3427698592785392e-07,4.5294624870268132,377,377,7599,0,0,-1,NaN,NaN,NaN,NaN,NaN,NaN,NaN,NaN
7619,56552,-54487,103,-50,-40,16384,0,1,0.13357034453840919,-9.0637769337182892e-07,4.5431853048096693,378,378,7619,0,0,1,0.13357034203800877,-1.7041298287138013e-05,-0.00029005322202513284,0.0014024379805725839,0.012022200411547081,0.0014413573324555814,1,0.0016674978413514611
7639,56798,-54724,76,-31,-18,16384,0,1,0.1341513515057346,-9.7847840081580393e-07,4.553310879096049,379,379,7639,0,0,1,0.13415134898320016,-1.7201672965613713e-05,-0.0002620044624137563,-0.0018549704043650194,0.012022200411547081,0.0018930210897951589,1,0.0028762912597659054
7659,57042,-54961,93,11,30,16384,0,1,0.13472999656496795,6.5439806732662962e-06,4.5657013844728027,380,380,7659,0,0,1,0.13472999401966076,-1.7364014245751959e-05,-0.0002991038705011384,0.00036847699918331645,0.012022200411547081,7.8179884975064745e-06,1,4.9058245370402846e-08
7679,57289,-55197,100,17,19,16384,0,1,0.13531095878055036,-1.2665760954901975e-06,4.5790245085338279,381,381,7679,0,0,1,0.13531095620989217,-1.7535641578412817e-05,-0.00029173433051754571,0.0012637034455875518,0.012022200411547081,0.0016914514879159477,1,0.0022963656910043192
7699,57534,-55433,73,61,14,16384,0,1,0.13588955908804071,-1.4825730827206156e-06,4.5887503890983767,382,382,7699,0,0,1,0.13588955649484741,-1.7697127357637328e-05,-0.00026646026160559444,-0.0022460272309133486,0.012022200411547081,0.0022855199976367438,1,0.0041926828112612297
7719,57780,-55670,86,31,-22,16384,0,1,0.13647056605536612,-1.5546737901645905e-06,4.6002082757908589,383,383,7719,0,0,1,0.13647056343792302,-1.7864992198509741e-05,-0.00031138080622383768,-0.00055197538617193223,0.012022200411547081,0.00056070868369272726,1,0.00025234605574127274
7739,58025,-55907,100,10,30,16384,1,1,0.1370503920686455,2.1705053931545591e-06,4.6135313998518841,384,384,7739,0,0,-1,NaN,NaN,NaN,NaN,NaN,NaN,NaN,NaN
7759,58271,-56143,99,48,-15,16384,0,1,0.13763017333018188,-1.8427714848389834e-06,4.6267212926722996,385,385,7759,0,0,1,0.13763017065246538,-1.8238873133633595e-05,-0.0003334598216708784,0.0012069887278435339,0.012022200411547081,0.0012415104715401278,1,0.0012371510576473764
7779,58517,-56380,90,-31,10,16384,0,1,0.13821118029750729,-1.9148721922829586e-06,4.6387121043272224,386,386,7779,0,0,1,0.13821117758978427,-1.8425602921529262e-05,-0.00030932004711381467,-3.0777378895044815e-05,0.012022200411547081,2.778372125210984e-05,1,6.1958769358458318e-07
7799,58761,-56616,98,-46,5,16384,0,1,0.13878859965095161,1.6664107112495739e-06,4.6517687659070273,387,387,7799,0,0,1,0.13878859691555018,-1.8604388014826642e-05,-0.00030993559469161269,0.0010156382508794992,0.012022200411547081,0.00085539702308118771,1,0.00058729651779772197
7819,59008,-56853,102,39,69,16384,0,1,0.13937078757232305,-2.2029698869573519e-06,4.6653583524492728,388,388,7819,0,0,1,0.13937078481076171,-1.8778915848623657e-05,-0.00028962282967404107,0.0015286387066263565,0.012022200411547081,0.001760855160608778,1,0.0024886809634263635
7839,59253,-57090,83,38,11,16384,0,1,0.13995061358560243,1.5222092963617977e-06,4.676416545419924,389,389,7839,0,0,1,0.1399506108022221,-1.8937983252442924e-05,-0.00025905005554172078,-0.00093869595531990047,0.012022200411547081,0.0011502664000617906,1,0.0010619860812814943
7859,59499,-57326,89,-4,-44,16384,0,1,0.14053039484713881,-2.4910675816317449e-06,4.6882741258342371,390,390,7859,0,0,1,0.14053039204286941,-1.9093618001828584e-05,-0.00027782397464815034,-0.0001654131381141916,0.012022200411547081,3.6043846665658271e-05,1,1.0427596647935826e-06
7879,59744,-57563,84,-16,1,16384,1,1,0.14111022086041819,1.2341116016874047e-06,4.699465550045498,391,391,7879,0,0,-1,NaN,NaN,NaN,NaN,NaN,NaN,NaN,NaN
7899,59991,-57800,104,49,-9,16384,0,1,0.14169240878178962,-2.6352689965195211e-06,4.7133215990689648,392,392,7899,0,0,1,0.14169240593160015,-1.9420297574875867e-05,-0.00028444050017251143,0.00049042062838227794,0.012022200411547081,0.00050514124118894725,1,0.00020480832739544526
7919,60235,-58036,92,3,-72,16384,0,1,0.14226982813523395,9.4601390701301135e-07,4.7255788732051078,393,393,7919,0,0,1,0.14226982526248455,-1.9581707238855188e-05,-0.00027463208760503122,0.00023384123996329933,0.012022200411547081,5.6009579419373469e-05,1,2.5179469734239774e-06
7939,60480,-58273,84,-21,-40,16384,0,1,0.14284965414851333,4.671193090332161e-06,4.7367702974163688,394,394,7939,0,0,1,0.14284965125426866,-1.9739590193039716e-05,-0.00026995526280559901,-0.00080839645350111304,0.012022200411547081,0.0010170351594520803,1,0.00083022133708739003
7959,60727,-58509,89,15,-25,16384,0,1,0.14343061636409574,-3.1393636784243327e-06,4.7486278778306819,395,395,7959,0,0,1,0.14343061344739519,-1.9901120476493133e-05,-0.00028612319187582003,-0.00016959107442432306,0.012022200411547081,0.00022590784120380585,1,4.0962322046283831e-05
7979,60971,-58746,100,-32,-3,16384,0,1,0.14400926142332909,4.3830953956577676e-06,4.7619510018917071,396,396,7979,0,0,1,0.14400925848266111,-2.0067665575877784e-05,-0.00028951501336438312,0.0012805735119183039,0.012022200411547081,0.00092480069577401797,1,0.00068646476793362502
7999,61218,-58983,90,12,64,16384,0,1,0.14459144934470053,5.1371479745084181e-07,4.7739418135466298,397,397,7999,0,0,1,0.14459144638174407,-2.0228762373347737e-05,-0.0002639035431259984,-3.4955315205174549e-05,0.012022200411547081,0.0001620802732860377,1,2.1085421031558761e-05
8019,61463,-59218,88,-15,34,16384,1,1,0.14516882394640185,-3.6434583603291439e-06,4.7856661627203323,398,398,8019,0,0,-1,NaN,NaN,NaN,NaN,NaN,NaN,NaN,NaN
8039,62109,-59456,93,16,3,16384,0,1,0.14622343823792722,-0.0015186863392024326,4.798056668097086,399,399,8039,0,0,1,0.14622343521783926,-2.066059095329697e-05,-0.00026530175573435955,-0.00080129405055642811,0.012022200411547081,0.038015228213678073,1,1.1599443686341053
8059,61954,-59692,102,-18,30,16384,0,1,0.14632965692700664,9.6201155461855814e-09,4.8116462546393315,400,400,8059,0,0,1,0.14632965390295136,-2.0689622081676273e-05,-0.00028132763674548755,0.0032038328458984383,0.012022200411547081,0.074367411835200514,1,4.4390219377784623
8079,62200,-59929,87,-20,-54,16384,0,1,0.14691066389433205,-6.2480591897789399e-08,4.8232373725724234,401,401,8079,0,0,1,0.14691066085222337,-2.0834460905170293e-05,-0.00021725097982772112,-0.00042167588435314474,0.012022200411547081,0.00042747744308301695,1,0.00014667238800316875
8099,62446,-60166,85,-8,26,16384,0,1,0.14749167086165746,-1.3458129934176438e-07,4.8345620280242949,402,402,8099,0,0,1,0.14749166780530018,-2.0963135203324226e-05,-0.00022568449751458886,-0.00068227488799158843,0.012022200411547081,0.00069393992430332569,1,0.00038651442396450068
8119,62690,-60402,87,18,-35,16384,0,1,0.14806909021510178,3.4467016041907682e-06,4.8461531459573868,403,403,8119,0,0,1,0.14806908714313696,-2.1097389385998839e-05,-0.00023932999527431775,-0.00041765626913324431,0.012022200411547081,0.00061014662363184234,1,0.00029880673460688323
8139,62937,-60639,79,-11,-85,16384,0,1,0.14865127813647322,-4.226789940161576e-07,4.8566784139655965,404,404,8139,0,0,1,0.14865127504724784,-2.1239155961420154e-05,-0.00024768312065681641,-0.0014682498352179179,0.012022200411547081,0.0013034633734269924,1,0.0013637024517751226
8159,63182,-60875,86,3,-32,16384,1,1,0.14922987844396357,-6.3867598124657566e-07,4.8681363006580787,405,405,8159,0,0,-1,NaN,NaN,NaN,NaN,NaN,NaN,NaN,NaN
8179,63428,-61111,75,-27,-9,16384,0,1,0.14980965970549995,-4.6519528592401185e-06,4.8781286437038478,406,406,8179,0,0,1,0.14980965657181841,-2.1560083390199392e-05,-0.00030641311406531813,-0.001270869935423599,0.012022200411547081,0.0011913536957908421,1,0.0011392089536131529
8199,63673,-61348,104,-30,2,16384,0,1,0.15038948571877933,-9.2677367592096884e-07,4.8919846927273145,407,407,8199,0,0,1,0.15038948255557341,-2.1745118515884314e-05,-0.00033183051277374531,0.0017975935828859302,0.012022200411547081,0.0016475896527536711,1,0.0021788135549040888
8219,63919,-61585,92,-12,-5,16384,0,1,0.15097049268610474,-9.9887438336494374e-07,4.9042419668634576,408,408,8219,0,0,1,0.15097048949428285,-2.1927470208822513e-05,-0.00029587864111624285,0.00022982162474339892,0.012022200411547081,0.00023867875996819884,1,4.5724556575687331e-05
8239,64164,-61822,101,-9,-2,16384,0,1,0.15155031869938412,2.7263047999542061e-06,4.9176983221650934,409,409,8239,0,0,1,0.15155031548257478,-2.2097695773705786e-05,-0.00029128220862117971,0.0014066950774278303,0.012022200411547081,0.001247895930922764,1,0.0012499098598797677
8259,64410,-62058,92,4,2,16384,0,1,0.1521300999609205,-1.2869720780393365e-06,4.9299555963012365,410,410,8259,0,0,1,0.15213009672183356,-2.2258419983558831e-05,-0.00026314830707274695,0.00022548536734303968,0.012022200411547081,0.00043573756849567724,1,0.00015239543855803697
8279,64656,-62295,86,-9,20,16384,0,1,0.15271110692824591,-1.3590727854833114e-06,4.9414134829937186,411,411,8279,0,0,1,0.15271110366938573,-2.2410000895993851e-05,-0.00025863859972607983,-0.00055197538617193223,0.012022200411547081,0.00056070868369272726,1,0.00025234605574127274
8299,64901,-62532,83,-22,-44,16384,1,1,0.15329093294152529,2.366106397835838e-06,4.9524716759643699,412,412,8299,0,0,-1,NaN,NaN,NaN,NaN,NaN,NaN,NaN,NaN
8319,65147,-62768,87,6,18,16384,0,1,0.15387071420306167,-1.6471704801577046e-06,4.9640627938974617,413,413,8319,0,0,1,0.15387071090203452,-2.2722721587460357e-05,-0.00028071761517312055,-0.00068235404853670312,0.012022200411547081,0.00069034251730866459,1,0.00038251740469621574
8339,65392,-63005,91,-21,-3,16384,0,1,0.15445054021634105,2.0780087031614451e-06,4.9761868367929951,414,414,8339,0,0,1,0.15445053689134391,-2.2889445427102111e-05,-0.00029436469614374516,0.00010370005923474301,0.012022200411547081,8.441647517966764e-05,1,5.7197412838240254e-06
8359,65638,-63240,99,6,-31,16384,0,1,0.1550290957720884,-5.8764443453816658e-06,4.9893767296134106,415,415,8359,0,0,1,0.15502909242220148,-2.3059151792584318e-05,-0.00029229069495917415,0.0011332456226785346,0.012022200411547081,0.0015654150612955684,1,0.0019668940780653899
8379,65883,-63477,84,52,-44,16384,0,1,0.15560892178536778,-2.1512651620625162e-06,5.0005681538246716,416,416,8379,0,0,1,0.15560891841259583,-2.322205868590327e-05,-0.00026962578250566693,-0.00080839645350111304,0.012022200411547081,0.0010170351594520803,1,0.00083022133708739003
8399,66129,-63715,95,9,-66,16384,0,1,0.15619115445848225,1.7178103010432506e-06,5.0132251216826456,417,417,8399,0,0,1,0.15619115106325862,-2.3383750372194356e-05,-0.00028579371157588795,0.00062505638760186003,0.012022200411547081,0.00044131367327161888,1,0.00015632078371323823
8419,66375,-63951,93,2,4,16384,0,1,0.15677093572001863,-2.2954665769502919e-06,5.0256156270593992,418,418,8419,0,0,1,0.15677093230214167,-2.3545824248910775e-05,-0.00027329258382380317,0.00035578486916269586,0.012022200411547081,0.00056896880910627568,1,0.00025983573249151453
8439,66620,-64188,104,-18,-12,16384,1,1,0.15735076173329801,1.4297126063688577e-06,5.0394716760828659,419,419,8439,0,0,-1,NaN,NaN,NaN,NaN,NaN,NaN,NaN,NaN
8459,66866,-64425,93,32,23,16384,0,1,0.15793176870062342,1.3576118989248828e-06,5.0518621814596196,420,420,8459,0,0,1,0.15793176524162389,-2.3854811153717033e-05,-0.00025906118905716369,0.0010788573547244925,0.012022200411547081,0.0010097498266662343,1,0.00081836968129032624
8479,67112,-64661,105,23,-9,16384,0,1,0.1585115499621598,-2.6556649790686596e-06,5.065851461723696,421,421,8479,0,0,1,0.15851154648529162,-2.3998754962463543e-05,-0.00023748404196277662,0.0019193788909942268,0.012022200411547081,0.0021677436964290158,1,0.0037717058974699176
8499,67357,-64898,96,-54,14,16384,0,1,0.15909137597543918,1.06951420425049e-06,5.0786416608222806,422,422,8499,0,0,1,0.15909137248475647,-2.4125325328623724e-05,-0.00019909646414273396,0.00075519756833128664,0.012022200411547081,0.00058173972787154814,1,0.00027163104452726511
8519,67602,-65134,95,31,-25,16384,0,1,0.15966997628292953,8.5351721702007198e-07,5.0912986286802546,423,423,8519,0,0,1,0.15966997278163261,-2.4236153027866728e-05,-0.00018399251277623208,0.00062056180911126946,0.012022200411547081,0.00064556729578842814,1,0.00033450683714195183
8539,67848,-65370,86,26,1,16384,0,1,0.16024975754446591,-3.1597596609734708e-06,5.1027565153727368,424,424,8539,0,0,1,0.16024975403400607,-2.4339230537408887e-05,-0.00017158127659389066,-0.00055631164357229147,0.012022200411547081,0.00036364987516524882,1,0.00010614238513041903
8559,68093,-65607,71,28,26,16384,0,1,0.16082958355774529,5.6541952234567881e-07,5.1122159334560644,425,425,8559,0,0,1,0.16082958003818795,-2.4441943464056854e-05,-0.00018270750946536296,-0.0025022899771523,0.012022200411547081,0.0027490412873854191,1,0.0060657496494045948
8579,68339,-65844,108,-21,39,16384,1,1,0.1614105905250707,4.933188149017038e-07,5.1266049074419717,426,426,8579,0,0,-1,NaN,NaN,NaN,NaN,NaN,NaN,NaN,NaN
8599,68585,-66081,76,20,18,16384,0,1,0.16199159749239611,4.2121810745772879e-07,5.1367304817283514,427,427,8599,0,0,1,0.16199159394136323,-2.4712406050018702e-05,-0.0002827991085516679,0.00022982162474383323,0.012022200411547081,0.00023867875996864293,1,4.5724556575857483e-05
8619,68830,-66317,87,-24,4,16384,0,1,0.16257019779988646,2.0522112022731068e-07,5.1483215996614433,428,428,8619,0,0,1,0.16257019422609123,-2.4874703950428961e-05,-0.00027820267605660476,-0.00042183420544337406,0.012022200411547081,0.00042028262909369479,1,0.00014177669151593019
8639,69076,-66554,87,-7,3,16384,0,1,0.16315120476721187,1.331204127833357e-07,5.1599127175945352,429,429,8639,0,0,1,0.16315120117024562,-2.503879252748928e-05,-0.00028663936016526392,-0.00042167588435314474,0.012022200411547081,0.00042747744308301695,1,0.00014667238800316875
8659,69322,-66791,92,13,20,16384,0,1,0.16373221173453728,6.1019705339360721e-08,5.1721699917306783,430,430,8659,0,0,1,0.16373220811299521,-2.5207781956739944e-05,-0.00029507287785213165,0.00022982162474339892,0.012022200411547081,0.00023867875996819884,1,4.5724556575687331e-05
8679,69566,-67027,90,-15,15,16384,0,1,0.16430963108798161,3.6423026088718933e-06,5.184160803385601,431,431,8679,0,0,1,0.16430962744169222,-2.537683571013348e-05,-0.00029047644535706851,-2.6757763675144418e-05,0.012022200411547081,0.00021045290180093522,1,3.5549360573660259e-05
8699,69812,-67263,86,-4,32,16384,0,1,0.16488941234951798,-3.7097426912164925e-07,5.1956186900780832,432,432,8699,0,0,1,0.16488940867872354,-2.5545403644194099e-05,-0.00029101160063049747,-0.00055631164357229147,0.012022200411547081,0.00036364987516524882,1,0.00010614238513041903
8719,70058,-67499,78,9,30,16384,1,1,0.16546919361105436,-4.3842511471151918e-06,5.2060107268456832,433,433,8719,0,0,-1,NaN,NaN,NaN,NaN,NaN,NaN,NaN,NaN
8739,70304,-67736,103,54,24,16384,0,1,0.16605020057837977,-4.4563518545591665e-06,5.2197335446285393,434,434,8739,0,0,1,0.16605019685460273,-2.5896121679480942e-05,-0.00031326406637344206,3.2204243314602819e-05,0.012022200411547081,0.00013736130331692856,1,1.5144354341986155e-05
8759,70549,-67974,96,15,12,16384,0,1,0.16663125229744821,3.2100034993097251e-06,5.2325237437271239,435,435,8759,0,0,1,0.16663124854521918,-2.6077957177492267e-05,-0.00031261998150711179,0.0007595338257316461,0.012022200411547081,0.00038468091934406109,1,0.00011877450998983277
8779,70795,-68210,92,30,-14,16384,0,1,0.16721103355898459,-8.0327337868381752e-07,5.244781017863267,436,436,8779,0,0,1,0.16721102977978414,-2.6254804747213e-05,-0.00029742930499265796,0.00022548536734303968,0.012022200411547081,0.00043573756849567724,1,0.00015239543855803697
8799,71041,-68447,96,-6,-9,16384,0,1,0.16779204052631,-8.7537408612779253e-07,5.2575712169618516,437,437,8799,0,0,1,0.16779203672179857,-2.6426303157515541e-05,-0.00029291959764599085,0.00075101963202115504,0.012022200411547081,0.00077160372240970437,1,0.00047787090015288661
8819,71285,-68683,87,-32,-41,16384,0,1,0.16836945987975432,2.7059088174047398e-06,5.2691623348949435,438,438,8819,0,0,1,0.16836945605172504,-2.6591104067258598e-05,-0.00027789920500564946,-0.00041765626913324431,0.012022200411547081,0.00061014662363184234,1,0.00029880673460688323
8839,71532,-68920,99,-15,3,16384,0,1,0.16895164780112576,-1.163471780802186e-06,5.2823522277153589,439,439,8839,0,0,1,0.16895164394993509,-2.67553251699456e-05,-0.00028625233038814812,0.0011377402011691251,0.012022200411547081,0.001361161438778759,1,0.00148710362129031
8859,71777,-69157,95,20,3,16384,1,1,0.16953147381440514,2.5617074025169636e-06,5.2950091955733329,440,440,8859,0,0,-1,NaN,NaN,NaN,NaN,NaN,NaN,NaN,NaN
8879,72022,-69392,72,53,43,16384,0,1,0.17010884841610646,-1.5954657552630221e-06,5.3046018448972712,441,441,8879,0,0,1,0.17010884452474304,-2.7060244665972325e-05,-0.00024074272234120286,-0.00087788246181086773,0.012022200411547081,0.00088659197122945704,1,0.00063091310005229434
8899,72268,-69629,100,-3,-12,16384,0,1,0.17068985538343187,-1.667566462706997e-06,5.3179249689582964,442,442,8899,0,0,1,0.17068985147398141,-2.720521842174913e-05,-0.00025830037157748009,0.0012722176392980424,0.012022200411547081,0.0013045286848503217,1,0.0013659324514789372
8919,72514,-69865,79,-24,9,16384,0,1,0.17126963664496825,-5.6808433407005394e-06,5.3284502369665061,443,443,8919,0,0,1,0.17126963271803489,-2.7347600056127885e-05,-0.00023285601879141637,-0.0014684081563081475,0.012022200411547081,0.0012962685594376615,1,0.0013486893615044003
8939,72759,-70102,97,13,31,16384,0,1,0.17184946265824763,-1.9556641573813898e-06,5.3413736673057004,444,444,8939,0,0,1,0.17184945871354954,-2.7491130244177383e-05,-0.00026222418191768071,0.00088549707015007418,0.012022200411547081,0.0007149709684812584,1,0.00041029740662842907
8959,73004,-70340,97,-23,-34,16384,0,1,0.17243051437731607,5.7106911964875014e-06,5.3542970976448947,445,445,8959,0,0,1,0.1724305104139674,-2.7638350858338397e-05,-0.00024451424051452619,0.00088983332755043364,0.012022200411547081,0.00051791215995377129,1,0.00021529511332560146
8979,73251,-70576,96,6,11,16384,0,1,0.17301147659289848,-2.0998655722689923e-06,5.3670872967434793,446,446,8979,0,0,1,0.17301147261342378,-2.7775234796567921e-05,-0.00022671757396341974,0.00074250543831066431,0.012022200411547081,0.0011585265254753303,1,0.0010772932046027312
8999,73495,-70813,98,0,-4,16384,1,1,0.17359012165213183,5.422593501813108e-06,5.3801439583232842,447,447,8999,0,0,-1,NaN,NaN,NaN,NaN,NaN,NaN,NaN,NaN
9019,73742,-71049,89,-21,23,16384,0,1,0.17417108386771424,-2.3879632669433857e-06,5.3920015387375972,448,448,9019,0,0,1,0.17417107986221342,-2.8020917848669348e-05,-0.00019701735643096185,0.00042519171692776851,0.012022200411547081,0.00044212302787875757,1,0.00015689468373007693
9039,73987,-71285,99,14,-51,16384,0,1,0.17474968417520459,-2.603960254173804e-06,5.4051914315580127,449,449,9039,0,0,1,0.17474968015895381,-2.8132451990408932e-05,-0.00018851352209248162,0.0011417598163890256,0.012022200411547081,0.0011784922582299337,1,0.00111474472158073
9059,74233,-71522,100,-16,-1,16384,0,1,0.17533069114253,-2.6760609616177791e-06,5.4185145556190379,450,450,9059,0,0,1,0.17533068711716818,-2.8235345955558529e-05,-0.00016567832576486197,0.0012722176392980424,0.012022200411547081,0.0013045286848503217,1,0.0013659324514789372
9079,74478,-71758,93,60,-38,16384,0,1,0.17590929145002035,-2.8920579488481973e-06,5.4309050609957916,451,451,9079,0,0,1,0.17590928741789019,-2.8323846430272551e-05,-0.00014023397297879825,0.00035996280547282577,0.012022200411547081,0.00037910481456811945,1,0.00011535609782934979
9099,74723,-71995,89,-10,-32,16384,0,1,0.17648911746329973,8.3312123447095229e-07,5.4427626414101047,452,452,9099,0,0,1,0.17648911342575721,-2.840307057752041e-05,-0.000133034716869318,-0.00015689894440370071,0.012022200411547081,0.00035087895639997636,1,9.8818123376884787e-05
9119,74970,-72232,93,-12,9,16384,0,1,0.17707130538467117,-3.0362593637359735e-06,5.4551531467868584,453,453,9119,0,0,1,0.17707130134185456,-2.8481435229271236e-05,-0.00013617269575760815,0.00035594319025292534,0.012022200411547081,0.0005617739951169448,1,0.0002533058500916524
9139,75214,-72469,96,-36,55,16384,1,1,0.17764995044390453,4.4861997103461268e-06,5.467943345885443,454,454,9139,0,0,-1,NaN,NaN,NaN,NaN,NaN,NaN,NaN,NaN
9159,75461,-72706,64,6,6,16384,0,1,0.17823213836527596,6.1681911213920102e-07,5.476470145284499,455,455,9159,0,0,1,0.17823213431279258,-2.863124517325934e-05,-0.0001219349681473858,-0.0013316834289330663,0.012022200411547081,0.0014550281246236195,1,0.001699279166092164
9179,75706,-72942,73,2,31,16384,0,1,0.17881073867276631,4.0082212490878291e-07,5.4861960258490479,456,456,9179,0,0,1,0.17881073461499075,-2.8709501907499258e-05,-0.00014856863672596532,-0.0022460272309133486,0.012022200411547081,0.0022855199976367438,1,0.0041926828112612297
9199,75952,-73179,91,-3,-55,16384,0,1,0.17939174564009172,3.2872141746480795e-07,5.4983200687445812,457,457,9199,0,0,1,0.17939174157381868,-2.8808870894778276e-05,-0.00019348918134420856,9.9522122924611381e-05,0.012022200411547081,0.00010544751935848858,1,8.9247218925488914e-06
9219,76197,-73415,100,-18,-39,16384,0,1,0.17997034594758207,1.1272443023438984e-07,5.5116431928056064,458,458,9219,0,0,1,0.17997034187058933,-2.8920247958603002e-05,-0.00019149873888579805,0.001272059318207813,0.012022200411547081,0.001311723498839644,1,0.0013810409439000703
9239,76443,-73651,84,51,10,16384,0,1,0.18055012720911845,-3.9005524477591528e-06,5.5228346170168674,459,459,9239,0,0,1,0.18055012312286034,-2.9023900176902091e-05,-0.00016605755252152576,-0.00081691064721160387,0.012022200411547081,0.00063011235638644569,1,0.0003186823045300406
9259,76688,-73888,90,5,-13,16384,0,1,0.18112995322239783,-1.7537326444000317e-07,5.5348254286717902,460,460,9259,0,0,1,0.18112994912733943,-2.912492132548228e-05,-0.00018239576546585923,-2.659944258491317e-05,0.012022200411547081,0.00021764771579026607,1,3.8021582088347325e-05
9279,76933,-74124,90,-37,34,16384,1,1,0.18170855352988818,-3.9137025167042128e-07,5.5468162403267129,461,461,9279,0,0,-1,NaN,NaN,NaN,NaN,NaN,NaN,NaN,NaN
9299,77180,-74361,92,-22,-35,16384,0,1,0.18229074145125962,-4.2607508498773472e-06,5.559073514462856,462,462,9299,0,0,1,0.18229073733677975,-2.9337261708241979e-05,-0.00018345974316913427,9.7353994223997551e-05,0.012022200411547081,0.00020397692362177935,1,3.3395198693304568e-05
9319,77424,-74599,88,-11,-52,16384,0,1,0.18287061221628204,7.2028843947544946e-06,5.5707978636365585,463,463,9319,0,0,1,0.18287060809214697,-2.9443080121925881e-05,-0.00018151266328469973,-0.00027868425251286778,0.012022200411547081,0.00087103300007620934,1,0.00060896337691831483
9339,77671,-74835,113,-3,22,16384,0,1,0.18345157443186444,-6.0767237400199907e-07,5.585852993825517,464,464,9339,0,0,1,0.1834515702978628,-2.9550151170545767e-05,-0.00018708634833508597,0.002957596969238739,0.012022200411547081,0.0034234576158492865,1,0.009407015675334654
9359,77916,-75072,90,88,-11,16384,0,1,0.18403140044514382,3.1175068093171506e-06,5.5978438054804398,465,465,9359,0,0,1,0.18403139630394957,-2.9641479785066653e-05,-0.00012793440895020325,-2.659944258491317e-05,0.012022200411547081,0.00021764771579026607,1,3.8021582088347325e-05
9379,78161,-75307,95,28,7,16384,0,1,0.18460877504684514,-1.0396663484628352e-06,5.6105007733384138,466,466,9379,0,0,1,0.18460877090090622,-2.9715499441701093e-05,-0.00012846639780184077,0.0006162255517109086,0.012022200411547081,0.00084262610431590646,1,0.00056989096983491136
9399,78407,-75544,77,50,-19,16384,0,1,0.18518978201417055,-1.1117670559068101e-06,5.6207595788654032,467,467,9399,0,0,1,0.18518977786388618,-2.9786559000324124e-05,-0.0001161418867674513,-0.001724670902546232,0.012022200411547081,0.0017597898491854486,1,0.0024856705871853161
9419,78653,-75781,87,3,24,16384,1,1,0.18577078898149596,-1.183867763350785e-06,5.6323506967984951,468,468,9419,0,0,-1,NaN,NaN,NaN,NaN,NaN,NaN,NaN,NaN
9439,78899,-76017,98,62,-34,16384,0,1,0.18635057024303234,-5.1971446413443276e-06,5.6454073583783,469,469,9439,0,0,1,0.18635056607957826,-2.9961414688347026e-05,-0.00018512872286935433,0.00029280324695304656,0.012022200411547081,0.00040382378453723724,1,0.00013088978247404189
9459,79143,-76254,88,21,-1,16384,0,1,0.18692921530226569,2.3253144327377727e-06,5.6571317075520025,470,470,9459,0,0,1,0.18692921112920693,-3.0066844217052466e-05,-0.00017927265793016289,-0.00028302050991322719,0.012022200411547081,0.00067397419154872234,1,0.00036459313728444545
9479,79390,-76490,72,-32,-38,16384,0,1,0.1875101775178481,-5.485242336018721e-06,5.6667243568759407,471,471,9479,0,0,1,0.18751017333515657,-3.0172639099237147e-05,-0.00018493306812850108,-0.0023846826053532662,0.012022200411547081,0.0020390232491710385,1,0.0033370776489349487
9499,79635,-76728,90,57,-50,16384,0,1,0.18809122923691654,2.1811130178501706e-06,5.6787151685308634,472,472,9499,0,0,1,0.18809122504156128,-3.0293951014777233e-05,-0.00023262672023571795,-2.226318518455374e-05,0.012022200411547081,0.00041470652431775315,1,0.00013803960014441044
9519,79880,-76965,78,-12,15,16384,0,1,0.18867105525019592,5.9062922011693198e-06,5.6891072052984635,473,473,9519,0,0,1,0.18867105103912193,-3.0428963125072819e-05,-0.00023307198393940354,-0.001590193464416444,0.012022200411547081,0.0018164226031130064,1,0.0026482303095218033
9539,80126,-77201,95,-11,-1,16384,0,1,0.1892508365117323,1.8930153231757773e-06,5.7017641731564375,474,474,9539,0,0,1,0.18925083228268857,-3.0573313536187525e-05,-0.00026487585322776397,0.0006163838728011396,0.012022200411547081,0.00083543129032658437,1,0.0005602004218108219
9559,80372,-77437,89,10,70,16384,1,1,0.18983061777326868,-2.1202615548177653e-06,5.7136217535707505,475,475,9559,0,0,-1,NaN,NaN,NaN,NaN,NaN,NaN,NaN,NaN
9579,80617,-77673,89,-6,-52,16384,0,1,0.19040921808075903,-2.3362585420481836e-06,5.7254793339850636,476,476,9579,0,0,1,0.19040921381477419,-3.0865860685183026e-05,-0.00024022049831584624,-0.00016332416995912748,0.012022200411547081,5.8888150603419841e-05,1,2.7834138738240717e-06
9599,80863,-77910,95,16,-11,16384,0,1,0.19099022504808444,-2.4083592494921587e-06,5.7381363018430376,477,477,9599,0,0,1,0.1909902207651071,-3.1006379391835806e-05,-0.00024348698171516858,0.00062072013020149884,0.012022200411547081,0.00063837248179910593,1,0.00032709226353173004
9619,81109,-78147,82,-31,16,16384,0,1,0.19157123201540985,-2.4804599569361338e-06,5.7490612635730782,478,478,9619,0,0,1,0.19157122771607668,-3.1144240596167655e-05,-0.00023107257911103574,-0.0010731733934496884,0.012022200411547081,0.0010936336461342328,1,0.00095998773153971176
9639,81353,-78383,93,-14,-30,16384,0,1,0.19214865136885417,1.1008229465963986e-06,5.7614517689498319,479,479,9639,0,0,1,0.19214864705264034,-3.128386308490585e-05,-0.00025253604697983434,0.00036414074178295547,0.012022200411547081,0.0001892408200299719,1,2.8744290899927449e-05
9659,81599,-78620,98,54,8,16384,0,1,0.19272965833617958,1.0287222391524237e-06,5.7745084305296368,480,480,9659,0,0,1,0.19272965400196948,-3.1428472603128261e-05,-0.00024525323214419359,0.0010116186356595987,0.012022200411547081,0.0010380662036300131,1,0.00086491227484726291
9679,81845,-78857,79,-41,-16,16384,0,1,0.19331066530350499,9.5662153170844877e-07,5.7850336985378465,481,481,9679,0,0,1,0.19331066095323313,-3.1565088863748262e-05,-0.00022502085943099104,-0.0014640718989077882,0.012022200411547081,0.0014933273679651399,1,0.0017899133434744129
9699,82090,-79094,92,-39,47,16384,1,1,0.19389049131678437,4.6818007150275988e-06,5.7972909726739896,482,482,9699,0,0,-1,NaN,NaN,NaN,NaN,NaN,NaN,NaN,NaN
9719,82336,-79331,91,11,-24,16384,0,1,0.19447149828410978,4.6097000075836241e-06,5.809415015569523,483,483,9719,0,0,1,0.19447149389630258,-3.1860291354442596e-05,-0.00028358373538717174,0.00016676084198907098,0.012022200411547081,7.7131142394265586e-05,1,4.7750891518422942e-06
9739,82582,-79566,79,9,0,16384,0,1,0.19505005383985713,-3.3447530409594864e-06,5.8199402835777327,484,484,9739,0,0,1,0.1950500494290591,-3.2023395493793796e-05,-0.00028024851854757671,-0.0014727444137085084,0.012022200411547081,0.0010992097509101831,1,0.00096980205799499604
9759,82828,-79803,85,-38,-2,16384,0,1,0.19563106080718254,-3.4168537484034615e-06,5.8312649390296043,485,485,9759,0,0,1,0.19563105637110756,-3.2194778580821739e-05,-0.00030970340682179298,-0.00068227488799158843,0.012022200411547081,0.00069393992430332569,1,0.00038651442396450068
9779,83073,-80040,90,-15,6,16384,0,1,0.19621088682046192,3.0832543491568816e-07,5.8432557506845271,486,486,9779,0,0,1,0.1962108823553409,-3.2378308676716302e-05,-0.00032334890458152188,-2.659944258491317e-05,0.012022200411547081,0.00021764771579026607,1,3.8021582088347325e-05
9799,83318,-80276,85,25,30,16384,0,1,0.19678948712795227,9.2328447685270047e-08,5.8545804061363986,487,487,9799,0,0,1,0.19678948263253382,-3.2565552353522191e-05,-0.0003238808934331594,-0.00068243320908181781,0.012022200411547081,0.00068674511031400348,1,0.00037854115995289959
9819,83564,-80513,88,24,-73,16384,0,1,0.19737049409527768,2.0227740241295067e-08,5.8663047553101011,488,488,9819,0,0,1,0.19737048956808803,-3.2757694390180242e-05,-0.00033752955761467973,-0.00029137638253348854,0.012022200411547081,0.00029424620247241851,1,6.9493420748779723e-05
9839,83809,-80749,85,-55,40,16384,1,1,0.19794909440276803,-1.9576924698912305e-07,5.8776294107619727,489,489,9839,0,0,-1,NaN,NaN,NaN,NaN,NaN,NaN,NaN,NaN
9859,84055,-80986,91,37,-19,16384,0,1,0.19853010137009344,-2.6786995443309803e-07,5.889753453657506,490,490,9859,0,0,1,0.19853009677454836,-3.315585375629004e-05,-0.00034918461291599812,-0.00029145554307860317,0.012022200411547081,0.00029064879547775746,1,6.7804577123769269e-05
9879,84301,-81224,97,-13,40,16384,0,1,0.19911233404320791,3.6012055086726687e-06,5.9026768839967003,491,491,9879,0,0,1,0.19911232941157203,-3.3360857392042122e-05,-0.00035501372377755303,0.00088565539124030378,0.012022200411547081,0.00070777615449192752,1,0.00040208123990770491
9899,84546,-81459,89,0,-24,16384,0,1,0.19968970864490923,-5.5596764910731708e-07,5.9145344644110134,492,492,9899,0,0,1,0.19968970397868147,-3.3560719746127658e-05,-0.00033730061595260707,-0.00016557145920442261,0.012022200411547081,4.3238660654980424e-05,1,1.5006051157976919e-06
9919,84792,-81696,95,23,-5,16384,0,1,0.20027071561223464,-6.2806835655129209e-07,5.9271914322689874,493,493,9919,0,0,1,0.20027071091263052,-3.3757655732022116e-05,-0.0003406120451368011,0.00062072013020149884,0.012022200411547081,0.00063837248179910593,1,0.00032709226353173004
9939,85037,-81932,82,5,-36,16384,0,1,0.20084931591972499,-8.4406534378171025e-07,5.938116393999028,494,494,9939,0,0,1,0.20084931118776941,-3.3951142473885026e-05,-0.00032819764253266825,-0.0010733317145399178,0.012022200411547081,0.0010864388321449106,1,0.00094739811624156174
9959,85283,-82169,81,17,-21,16384,0,1,0.2014303228870504,-9.1616605122568526e-07,5.948908124488459,495,495,9959,0,0,1,0.20143031812172346,-3.4148063719130076e-05,-0.00034966427682325829,-0.0012034728952684758,0.012022200411547081,0.0012268648867439431,1,0.0012081349016990581
9979,85528,-82406,72,28,5,16384,1,1,0.20201014890032978,2.8090131320934645e-06,5.9585007738123972,496,496,9979,0,0,-1,NaN,NaN,NaN,NaN,NaN,NaN,NaN,NaN
9999,85775,-82642,81,-47,-34,16384,0,1,0.20259111111591219,-5.0015436366630292e-06,5.9692925043018281,497,497,9999,0,0,1,0.2025911062695176,-3.4581889429032384e-05,-0.00039780319263416075,-0.0017919887821558052,0.012022200411547081,0.0017278760652265689,1,0.002396332811665642
10019,86019,-82879,77,-56,-19,16384,0,1,0.20316975617514554,2.5209154374190711e-06,5.9795513098288176,498,498,10019,0,0,1,0.20316975127874859,-3.4822445528618311e-05,-0.00043364296827741455,-0.0017163150299259707,0.012022200411547081,0.0021395178382617522,1,0.0036741237537955278
10039,86265,-83115,78,-22,-1,16384,0,1,0.20374953743668192,-1.4923614405744715e-06,5.9899433465964176,499,499,10039,0,0,1,0.20374953248137162,-3.5083814459902179e-05,-0.00046796926887582302,-0.0015987076581269351,0.012022200411547081,0.0014294998000473718,1,0.0016401748743511372
10059,86511,-83353,86,-4,16,16384,0,1,0.20433177010979639,2.3767140225312954e-06,6.0014012332888997,500,500,10059,0,0,1,0.20433176508630263,-3.5365589645589101e-05,-0.00049994342203829589,-0.00054763912877157104,0.012022200411547081,0.00075776749222021436,1,0.00046088640481273984
10079,86756,-83589,84,25,-17,16384,0,1,0.20491037041728674,2.1607170353008771e-06,6.0125926575001607,501,501,10079,0,0,1,0.20491036531989149,-3.5658025692540824e-05,-0.00051089620461386431,-0.0008127327109014739,0.012022200411547081,0.00081997635092460192,1,0.00053966544489845558
10099,87002,-83825,89,2,2,16384,0,1,0.20549015167882312,-1.8525598426926655e-06,6.0244502379144738,502,502,10099,0,0,1,0.20549014650333555,-3.5958945797019598e-05,-0.00052715085883203727,-0.0001654131381141916,0.012022200411547081,3.6043846665658271e-05,1,1.0427596647935826e-06
10119,87247,-84062,79,-28,-7,16384,1,1,0.2060699776921025,1.8726193406264841e-06,6.0349755059226835,503,503,10119,0,0,-1,NaN,NaN,NaN,NaN,NaN,NaN,NaN,NaN
10139,87494,-84298,86,41,-21,16384,0,1,0.20665093990768491,-5.9379374281300096e-06,6.0464333926151657,504,504,10139,0,0,1,0.20665093456888206,-3.6574696472381286e-05,-0.00053376738435639837,-0.0010101917712400396,0.012022200411547081,0.00092848862156519872,1,0.00069195066118807108
10159,87738,-84535,86,25,-20,16384,0,1,0.20722958496691826,1.5845216459520907e-06,6.0578912793076478,505,505,10159,0,0,1,0.2072295795425356,-3.6889403741377345e-05,-0.00055397121978106867,-0.00054361951355167098,0.012022200411547081,0.00094043667276903103,1,0.00070987367229034457
10179,87985,-84772,103,47,-41,16384,0,1,0.2078117728882897,-2.284858952254835e-06,6.0716140970905039,506,506,10179,0,0,1,0.20781176737281307,-3.7215083964481183e-05,-0.00056484361005226802,0.0016589382084460126,0.012022200411547081,0.0018940864012193764,1,0.0028795294784420373
10199,88230,-85008,94,14,23,16384,0,1,0.20839037319578005,-2.5008559394852533e-06,6.0841378337078682,507,507,10199,0,0,1,0.20839036759334481,-3.7532304013474428e-05,-0.0005316648458832951,0.00049026230729248192,0.012022200411547081,0.00051233605517871789,1,0.00021068411724385383
10219,88474,-85245,86,0,70,16384,0,1,0.20896901825501341,5.0216031345968466e-06,6.0955957204003504,508,508,10219,0,0,1,0.20896901257229741,-3.783711235699814e-05,-0.00052185959973760632,-0.00054361951355167098,0.012022200411547081,0.00094043667276903103,1,0.00070987367229034457
